File: MPT files/1_00V_10cyc.mpt
EC-Lab ASCII FILE
Nb header lines : 65

Potentio Electrochemical Impedance Spectroscopy

Run on channel : 1 (SN 11321)
User :
Electrode connection : standard
Potential control : Ewe
Ewe ctrl range : min = -10.00 V. max = 10.00 V
Ewe.I filtering : 50 kHz
Safety Limits :
	Do not start on E overload
Channel : Grounded
Acquisition started on : 04/11/2024 10:26:08.620
Loaded Setting File :  D:\ECLab Data\bh\Ir\Ir impedance\settings\Impedence\2nd\0.8 to 1.18 V.mps
Saved on :
	File : 0.8 to 1_11_PEIS_C01.mpr
	Directory : D:\ECLab Data\bh\Ir\Ir impedance\Repeat to remove negative imped\10 cycles imped\0.8 to 1.18 V\
	Host : 127.0.0.1
Device : SP-300 (SN 1287)
Address : USB
EC-Lab for windows v11.50 (software)
Internet server v11.50 (firmware)
Command interpretor v11.50 (firmware)
Electrode material :
Initial state :
Electrolyte :
Comments :
Cable : standard
Electrode surface area : 0.001 cm�
Characteristic mass : 0.001 g
Equivalent Weight : 0.000 g/eq.
Density : 0.000 g/cm3
Volume (V) : 0.001 cm�
Cycle Definition : Charge/Discharge alternance
Mode                Single sine
E (V)               1.0000
vs.                 Ref
tE (h:m:s)          0:00:0.0000
record              0
dI                  0.000
unit dI             mA
dt (s)              0.000
fi                  1.000
unit fi             Hz
ff                  0.200
unit ff             MHz
Nd                  10
Points              per decade
spacing             Logarithmic
Va (mV)             10.0
pw                  0.10
Na                  2
corr                0
E range min (V)     -10.000
E range max (V)     10.000
I Range             Auto
Bandwidth           8
nc cycles           0
goto Ns'            0
nr cycles           0
inc. cycle          0

freq/Hz	Re(Z)/Ohm	-Im(Z)/Ohm	|Z|/Ohm	Phase(Z)/deg	time/s	<Ewe>/V	<I>/mA	Cs/�F	Cp/�F	cycle number	I Range	|Ewe|/V	|I|/A	Ns	(Q-Qo)/mA.h	Re(Y)/Ohm-1	Im(Y)/Ohm-1	|Y|/Ohm-1	Phase(Y)/deg	Re(C)/nF	Im(C)/nF	|C|/nF	Phase(C)/deg	Re(M)	Im(M)	|M|	Phase(M)/deg	Re(Permittivity)	Im(Permittivity)	|Permittivity|	Phase(Permittivity)/deg	Re(Resistivity)/Ohm.cm	Im(Resistivity)/Ohm.cm	|Resistivity|/Ohm.cm	Phase(Resistivity)/deg	Re(Conductivity)/mS/cm	Im(Conductivity)/mS/cm	|Conductivity|/mS/cm	Phase(Conductivity)/deg	Tan(Delta)	Loss Angle(Delta)/deg	dq/mA.h
1.00006	38.4003	806.246	807.16	-87.2731	04/11/2024 10:31:20.6403	1.00062	0.000242516	197.39	196.944	1	41	0.0100633	1.24675e-05	0	-2.17964e-07	5.89407e-05	0.00123751	0.00123891	87.2731	196944	9380.13	197167	-2.72685	0.0000000E+000	0.0000000E+000	0.0000000E+000	2.72685	0.0000000E+000	0.0000000E+000	0.0000000E+000	-2.72685	0.0000000E+000	0.0000000E+000	0.0000000E+000	-87.2731	0.0000000E+000	0.0000000E+000	0.0000000E+000	87.2731	0.0476286	2.72685	-2.17964e-07
1.25968	30.8843	646.315	647.053	-87.2642	04/11/2024 10:31:22.3449	1.0006	0.000217767	195.486	195.041	1	41	0.0100604	1.5548e-05	0	8.96726e-08	7.37664e-05	0.00154371	0.00154547	87.2642	195041	9320.08	195264	-2.73581	0.0000000E+000	0.0000000E+000	0.0000000E+000	2.73581	0.0000000E+000	0.0000000E+000	0.0000000E+000	-2.73581	0.0000000E+000	0.0000000E+000	0.0000000E+000	-87.2642	0.0000000E+000	0.0000000E+000	0.0000000E+000	87.2642	0.0477852	2.73581	3.07637e-07
1.58469	27.0228	517.514	518.219	-87.0109	04/11/2024 10:31:23.7101	1.00061	0.000204828	194.068	193.541	1	41	0.0100636	1.94196e-05	0	6.52593e-07	0.000100625	0.00192706	0.00192969	87.0109	193541	10106.1	193804	-2.98908	0.0000000E+000	0.0000000E+000	0.0000000E+000	2.98908	0.0000000E+000	0.0000000E+000	0.0000000E+000	-2.98908	0.0000000E+000	0.0000000E+000	0.0000000E+000	-87.0109	0.0000000E+000	0.0000000E+000	0.0000000E+000	87.0109	0.0522167	2.98907	5.6292e-07
1.99502	23.4396	413.991	414.654	-86.7595	04/11/2024 10:31:24.8032	1.00061	0.000182048	192.7	192.085	1	41	0.0100681	2.42807e-05	0	1.01349e-06	0.000136326	0.0024078	0.00241165	86.7595	192085	10875.6	192392	-3.24055	0.0000000E+000	0.0000000E+000	0.0000000E+000	3.24055	0.0000000E+000	0.0000000E+000	0.0000000E+000	-3.24055	0.0000000E+000	0.0000000E+000	0.0000000E+000	-86.7595	0.0000000E+000	0.0000000E+000	0.0000000E+000	86.7595	0.0566186	3.24054	3.60901e-07
2.51125	20.8866	330.394	331.053	-86.3827	04/11/2024 10:31:26.1291	1.00061	0.000210881	191.822	191.059	1	40	0.0100595	3.03865e-05	0	5.84383e-07	0.000190577	0.00301464	0.00302066	86.3827	191059	12078.2	191440	-3.61726	0.0000000E+000	0.0000000E+000	0.0000000E+000	3.61726	0.0000000E+000	0.0000000E+000	0.0000000E+000	-3.61726	0.0000000E+000	0.0000000E+000	0.0000000E+000	-86.3827	0.0000000E+000	0.0000000E+000	0.0000000E+000	86.3827	0.0632172	3.61726	-4.29111e-07
3.16296	19.3029	264.014	264.719	-85.8184	04/11/2024 10:31:26.8340	1.00062	0.000118199	190.59	189.576	1	40	0.0100636	3.8016e-05	0	3.99232e-07	0.000275456	0.00376754	0.00377759	85.8184	189576	13860.5	190082	-4.18163	0.0000000E+000	0.0000000E+000	0.0000000E+000	4.18163	0.0000000E+000	0.0000000E+000	0.0000000E+000	-4.18163	0.0000000E+000	0.0000000E+000	0.0000000E+000	-85.8184	0.0000000E+000	0.0000000E+000	0.0000000E+000	85.8184	0.0731131	4.18164	-1.8515e-07
3.9819	18.0875	210.314	211.091	-85.0845	04/11/2024 10:31:27.4050	1.00062	0.000140883	190.047	188.651	1	40	0.0100631	4.76717e-05	0	1.1111e-06	0.000405919	0.00471988	0.0047373	85.0845	188651	16224.4	189348	-4.91546	0.0000000E+000	0.0000000E+000	0.0000000E+000	4.91546	0.0000000E+000	0.0000000E+000	0.0000000E+000	-4.91546	0.0000000E+000	0.0000000E+000	0.0000000E+000	-85.0845	0.0000000E+000	0.0000000E+000	0.0000000E+000	85.0845	0.0860021	4.91547	7.11871e-07
5.01444	16.9012	167.89	168.738	-84.2515	04/11/2024 10:31:27.8682	1.0006	7.9266e-05	189.049	187.152	1	40	0.0100643	5.96443e-05	0	1.09125e-06	0.000593597	0.00589654	0.00592634	84.2515	187152	18840.3	188098	-5.74852	0.0000000E+000	0.0000000E+000	0.0000000E+000	5.74852	0.0000000E+000	0.0000000E+000	0.0000000E+000	-5.74852	0.0000000E+000	0.0000000E+000	0.0000000E+000	-84.2515	0.0000000E+000	0.0000000E+000	0.0000000E+000	84.2515	0.100669	5.74852	-1.98493e-08
6.31058	16.3346	134.006	134.998	-83.0502	04/11/2024 10:31:28.2472	1.0006	4.73642e-05	188.203	185.448	1	40	0.0100678	7.45775e-05	0	4.57776e-07	0.000896305	0.00735311	0.00740754	83.0502	185448	22605.1	186820	-6.94977	0.0000000E+000	0.0000000E+000	0.0000000E+000	6.94977	0.0000000E+000	0.0000000E+000	0.0000000E+000	-6.94977	0.0000000E+000	0.0000000E+000	0.0000000E+000	-83.0502	0.0000000E+000	0.0000000E+000	0.0000000E+000	83.0502	0.121895	6.94977	-6.33478e-07
7.94761	15.5225	106.871	107.992	-81.7358	04/11/2024 10:31:28.8215	1.00061	0.000103301	187.38	183.509	1	40	0.0100678	9.32275e-05	0	1.27658e-06	0.001331	0.00916377	0.00925992	81.7358	183509	26653.9	185435	-8.26417	0.0000000E+000	0.0000000E+000	0.0000000E+000	8.26417	0.0000000E+000	0.0000000E+000	0.0000000E+000	-8.26417	0.0000000E+000	0.0000000E+000	0.0000000E+000	-81.7358	0.0000000E+000	0.0000000E+000	0.0000000E+000	81.7358	0.145246	8.26416	8.18809e-07
10.0032	15.0084	85.3905	86.6994	-80.0314	04/11/2024 10:31:29.2857	1.00061	0.000114355	186.325	180.741	1	40	0.010079	0.000116252	0	1.00844e-06	0.00199665	0.01136	0.0115341	80.0314	180741	31767.4	183512	-9.96859	0.0000000E+000	0.0000000E+000	0.0000000E+000	9.96859	0.0000000E+000	0.0000000E+000	0.0000000E+000	-9.96859	0.0000000E+000	0.0000000E+000	0.0000000E+000	-80.0314	0.0000000E+000	0.0000000E+000	0.0000000E+000	80.0314	0.175762	9.9686	-2.68148e-07
12.6008	14.5594	68.1082	69.647	-77.9336	04/11/2024 10:31:30.1209	1.00062	-0.000581111	185.448	177.344	1	39	0.0100613	0.000144461	0	3.28168e-07	0.00300149	0.0140409	0.0143581	77.9336	177344	37910.5	181351	-12.0664	0.0000000E+000	0.0000000E+000	0.0000000E+000	12.0664	0.0000000E+000	0.0000000E+000	0.0000000E+000	-12.0664	0.0000000E+000	0.0000000E+000	0.0000000E+000	-77.9336	0.0000000E+000	0.0000000E+000	0.0000000E+000	77.9336	0.213768	12.0664	-6.80269e-07
15.8576	14.2666	54.4416	56.2799	-75.3156	04/11/2024 10:31:30.5619	1.00061	-0.000368146	184.354	172.507	1	39	0.0100658	0.000178852	0	5.28769e-07	0.00450417	0.017188	0.0177683	75.3156	172507	45206.1	178332	-14.6844	0.0000000E+000	0.0000000E+000	0.0000000E+000	14.6844	0.0000000E+000	0.0000000E+000	0.0000000E+000	-14.6844	0.0000000E+000	0.0000000E+000	0.0000000E+000	-75.3156	0.0000000E+000	0.0000000E+000	0.0000000E+000	75.3156	0.262054	14.6844	2.00601e-07
19.9681	13.9443	43.4331	45.6167	-72.2006	04/11/2024 10:31:31.0281	1.00062	-0.000471366	183.511	166.363	1	39	0.0100677	0.000220701	0	4.51693e-07	0.00670117	0.0208725	0.0219218	72.2006	166363	53411.5	174727	-17.7994	0.0000000E+000	0.0000000E+000	0.0000000E+000	17.7994	0.0000000E+000	0.0000000E+000	0.0000000E+000	-17.7994	0.0000000E+000	0.0000000E+000	0.0000000E+000	-72.2006	0.0000000E+000	0.0000000E+000	0.0000000E+000	72.2006	0.321053	17.7994	-7.7076e-08
25.1368	13.7298	34.6829	37.3016	-68.403	04/11/2024 10:31:31.4897	1.00062	-0.000385286	182.556	157.823	1	39	0.0100652	0.000269832	0	6.31317e-07	0.00986758	0.0249264	0.0268085	68.403	157823	62477.2	169740	-21.597	0.0000000E+000	0.0000000E+000	0.0000000E+000	21.597	0.0000000E+000	0.0000000E+000	0.0000000E+000	-21.597	0.0000000E+000	0.0000000E+000	0.0000000E+000	-68.403	0.0000000E+000	0.0000000E+000	0.0000000E+000	68.403	0.395868	21.597	1.79625e-07
31.6509	13.4991	27.7344	30.8451	-64.0465	04/11/2024 10:31:31.9333	1.00063	-0.000366839	181.308	146.582	1	39	0.0100686	0.000326425	0	9.45808e-07	0.0141883	0.0291505	0.0324201	64.0465	146582	71345.4	163023	-25.9535	0.0000000E+000	0.0000000E+000	0.0000000E+000	25.9535	0.0000000E+000	0.0000000E+000	0.0000000E+000	-25.9535	0.0000000E+000	0.0000000E+000	0.0000000E+000	-64.0465	0.0000000E+000	0.0000000E+000	0.0000000E+000	64.0465	0.486727	25.9535	3.1449e-07
39.8343	13.3459	22.1774	25.8834	-58.9614	04/11/2024 10:31:32.4006	1.00062	-0.000424781	180.157	132.261	1	39	0.0100701	0.000389057	0	1.25772e-06	0.0199207	0.033103	0.0386348	58.9614	132261	79591.5	154362	-31.0386	0.0000000E+000	0.0000000E+000	0.0000000E+000	31.0386	0.0000000E+000	0.0000000E+000	0.0000000E+000	-31.0386	0.0000000E+000	0.0000000E+000	0.0000000E+000	-58.9614	0.0000000E+000	0.0000000E+000	0.0000000E+000	58.9614	0.601777	31.0386	3.11914e-07
50.1444	13.2205	17.7239	22.1115	-53.2802	04/11/2024 10:31:32.8652	1.00061	-0.0005321	179.076	115.059	1	39	0.0100691	0.000455378	0	1.36314e-06	0.0270403	0.0362512	0.0452253	53.2802	115059	85824.1	143542	-36.7198	0.0000000E+000	0.0000000E+000	0.0000000E+000	36.7198	0.0000000E+000	0.0000000E+000	0.0000000E+000	-36.7198	0.0000000E+000	0.0000000E+000	0.0000000E+000	-53.2802	0.0000000E+000	0.0000000E+000	0.0000000E+000	53.2802	0.745915	36.7198	1.05414e-07
63.1607	13.1067	14.2118	19.3329	-47.3164	04/11/2024 10:31:33.3416	1.00062	-0.000369443	177.306	95.8137	1	39	0.0100859	0.000521695	0	1.66343e-06	0.0350671	0.0380237	0.0517253	47.3164	95813.7	88363.5	130339	-42.6836	0.0000000E+000	0.0000000E+000	0.0000000E+000	42.6836	0.0000000E+000	0.0000000E+000	0.0000000E+000	-42.6836	0.0000000E+000	0.0000000E+000	0.0000000E+000	-47.3164	0.0000000E+000	0.0000000E+000	0.0000000E+000	47.3164	0.922243	42.6836	3.00291e-07
79.5163	13.0026	11.3978	17.2909	-41.2372	04/11/2024 10:31:33.8100	1.00061	-0.000438379	175.607	76.3041	1	39	0.0100914	0.000583625	0	1.77749e-06	0.0434903	0.0381227	0.0578338	41.2372	76304.1	87047.4	115757	-48.7628	0.0000000E+000	0.0000000E+000	0.0000000E+000	48.7628	0.0000000E+000	0.0000000E+000	0.0000000E+000	-48.7628	0.0000000E+000	0.0000000E+000	0.0000000E+000	-41.2372	0.0000000E+000	0.0000000E+000	0.0000000E+000	41.2372	1.1408	48.7628	1.14063e-07
100.096	12.9167	9.15169	15.8302	-35.3182	04/11/2024 10:31:34.2746	1.00062	-0.00035267	173.74	58.0672	1	39	0.0100946	0.000637681	0	1.63016e-06	0.0515442	0.0365198	0.0631704	35.3182	58067.2	81956.2	100442	-54.6818	0.0000000E+000	0.0000000E+000	0.0000000E+000	54.6818	0.0000000E+000	0.0000000E+000	0.0000000E+000	-54.6818	0.0000000E+000	0.0000000E+000	0.0000000E+000	-35.3182	0.0000000E+000	0.0000000E+000	0.0000000E+000	35.3182	1.4114	54.6818	-1.47328e-07
126.008	12.8361	7.36392	14.7984	-29.8424	04/11/2024 10:31:34.7362	1.00061	-0.000414525	171.519	42.472	1	39	0.0100939	0.000682094	0	2.03879e-06	0.0586143	0.0336264	0.067575	29.8424	42472	74033.1	85350.9	-60.1576	0.0000000E+000	0.0000000E+000	0.0000000E+000	60.1576	0.0000000E+000	0.0000000E+000	0.0000000E+000	-60.1576	0.0000000E+000	0.0000000E+000	0.0000000E+000	-29.8424	0.0000000E+000	0.0000000E+000	0.0000000E+000	29.8424	1.7431	60.1576	4.08632e-07
158.63	12.7635	5.94217	14.0789	-24.9648	04/11/2024 10:31:35.4575	1.00062	-0.0050005	168.846	30.0776	1	38	0.0100676	0.00071508	0	1.49087e-06	0.0643918	0.0299783	0.0710282	24.9648	30077.6	64605.1	71263.4	-65.0352	0.0000000E+000	0.0000000E+000	0.0000000E+000	65.0352	0.0000000E+000	0.0000000E+000	0.0000000E+000	-65.0352	0.0000000E+000	0.0000000E+000	0.0000000E+000	-24.9648	0.0000000E+000	0.0000000E+000	0.0000000E+000	24.9648	2.14795	65.0352	-5.47923e-07
199.681	12.699	4.81217	13.5802	-20.7538	04/11/2024 10:31:35.9251	1.00061	-0.00504152	165.632	20.7976	1	38	0.0100669	0.000741292	0	1.60063e-06	0.0688586	0.0260934	0.0736367	20.7538	20797.6	54883.5	58691.9	-69.2462	0.0000000E+000	0.0000000E+000	0.0000000E+000	69.2462	0.0000000E+000	0.0000000E+000	0.0000000E+000	-69.2462	0.0000000E+000	0.0000000E+000	0.0000000E+000	-20.7538	0.0000000E+000	0.0000000E+000	0.0000000E+000	20.7538	2.63893	69.2462	1.09764e-07
251.529	12.6307	3.92058	13.2252	-17.2444	04/11/2024 10:31:36.3866	1.00063	-0.00484947	161.392	14.1834	1	38	0.0100688	0.000761338	0	1.60863e-07	0.0722145	0.0224155	0.0756134	17.2444	14183.4	45693.6	47844.3	-72.7556	0.0000000E+000	0.0000000E+000	0.0000000E+000	72.7556	0.0000000E+000	0.0000000E+000	0.0000000E+000	-72.7556	0.0000000E+000	0.0000000E+000	0.0000000E+000	-17.2444	0.0000000E+000	0.0000000E+000	0.0000000E+000	17.2444	3.22163	72.7556	-1.43977e-06
316.519	12.5699	3.21388	12.9743	-14.3421	04/11/2024 10:31:36.8488	1.00062	-0.00532306	156.456	9.60027	1	38	0.0100661	0.000775851	0	1.16322e-07	0.0746735	0.0190925	0.0770757	14.3421	9600.27	37548	38755.8	-75.6579	0.0000000E+000	0.0000000E+000	0.0000000E+000	75.6579	0.0000000E+000	0.0000000E+000	0.0000000E+000	-75.6579	0.0000000E+000	0.0000000E+000	0.0000000E+000	-14.3421	0.0000000E+000	0.0000000E+000	0.0000000E+000	14.3421	3.91114	75.6579	-4.4541e-08
398.597	12.5006	2.65441	12.7793	-11.9883	04/11/2024 10:31:37.3155	1.00061	-0.00568478	150.424	6.48994	1	38	0.0100663	0.000787701	0	-1.94277e-07	0.076545	0.0162538	0.0782516	11.9883	6489.94	30563.5	31244.9	-78.0117	0.0000000E+000	0.0000000E+000	0.0000000E+000	78.0117	0.0000000E+000	0.0000000E+000	0.0000000E+000	-78.0117	0.0000000E+000	0.0000000E+000	0.0000000E+000	-11.9883	0.0000000E+000	0.0000000E+000	0.0000000E+000	11.9883	4.70936	78.0117	-3.10599e-07
501.766	12.4327	2.21234	12.628	-10.0899	04/11/2024 10:31:37.7791	1.00062	-0.00513474	143.373	4.4005	1	38	0.0100716	0.000797557	0	-2.99736e-07	0.0779644	0.0138734	0.0791891	10.0899	4400.5	24729.5	25118	-79.9101	0.0000000E+000	0.0000000E+000	0.0000000E+000	79.9101	0.0000000E+000	0.0000000E+000	0.0000000E+000	-79.9101	0.0000000E+000	0.0000000E+000	0.0000000E+000	-10.0899	0.0000000E+000	0.0000000E+000	0.0000000E+000	10.0899	5.6197	79.9101	-1.05459e-07
631.82	12.3578	1.86733	12.4981	-8.5927	04/11/2024 10:31:38.2422	1.00062	-0.00522797	134.898	3.01135	1	38	0.010073	0.000805966	0	-6.14404e-07	0.0791141	0.0119546	0.0800122	8.5927	3011.35	19928.8	20155	-81.4073	0.0000000E+000	0.0000000E+000	0.0000000E+000	81.4073	0.0000000E+000	0.0000000E+000	0.0000000E+000	-81.4073	0.0000000E+000	0.0000000E+000	0.0000000E+000	-8.5927	0.0000000E+000	0.0000000E+000	0.0000000E+000	8.5927	6.6179	81.4073	-3.14668e-07
795.253	12.2833	1.57472	12.3838	-7.30551	04/11/2024 10:31:38.7057	1.00062	-0.00524288	127.09	2.055	1	38	0.0100665	0.000812872	0	-1.1653e-06	0.0800951	0.0102682	0.0807506	7.30551	2055	16029.5	16160.7	-82.6945	0.0000000E+000	0.0000000E+000	0.0000000E+000	82.6945	0.0000000E+000	0.0000000E+000	0.0000000E+000	-82.6945	0.0000000E+000	0.0000000E+000	0.0000000E+000	-7.30551	0.0000000E+000	0.0000000E+000	0.0000000E+000	7.30551	7.80027	82.6945	-5.50901e-07
1001.6	12.225	1.34485	12.2987	-6.27779	04/11/2024 10:31:39.1704	1.00062	-0.00500609	118.154	1.41279	1	38	0.0100759	0.000819261	0	-2.04148e-06	0.0808216	0.00889107	0.0813092	6.27779	1412.79	12842.6	12920	-83.7222	0.0000000E+000	0.0000000E+000	0.0000000E+000	83.7222	0.0000000E+000	0.0000000E+000	0.0000000E+000	-83.7222	0.0000000E+000	0.0000000E+000	0.0000000E+000	-6.27779	0.0000000E+000	0.0000000E+000	0.0000000E+000	6.27779	9.0902	83.7222	-8.76176e-07
1260.4	12.1533	1.17939	12.2104	-5.54281	04/11/2024 10:31:39.6357	1.00062	-0.0054051	107.066	0.998879	1	38	0.0100785	0.000825408	0	-2.18136e-06	0.0815147	0.00791045	0.0818976	5.54281	998.878	10293.1	10341.5	-84.4572	0.0000000E+000	0.0000000E+000	0.0000000E+000	84.4572	0.0000000E+000	0.0000000E+000	0.0000000E+000	-84.4572	0.0000000E+000	0.0000000E+000	0.0000000E+000	-5.54281	0.0000000E+000	0.0000000E+000	0.0000000E+000	5.54281	10.3047	84.4572	-1.3988e-07
1587.54	12.0769	1.03467	12.1211	-4.89676	04/11/2024 10:31:40.1004	1.00063	-0.00566054	96.8935	0.706007	1	38	0.0100745	0.00083115	0	-3.1933e-06	0.0821993	0.00704228	0.0825004	4.89676	706.007	8240.69	8270.88	-85.1032	0.0000000E+000	0.0000000E+000	0.0000000E+000	85.1032	0.0000000E+000	0.0000000E+000	0.0000000E+000	-85.1032	0.0000000E+000	0.0000000E+000	0.0000000E+000	-4.89676	0.0000000E+000	0.0000000E+000	0.0000000E+000	4.89676	11.6723	85.1032	-1.01194e-06
1998.08	12.0057	0.909021	12.0401	-4.32994	04/11/2024 10:31:40.5659	1.00063	-0.00507321	87.626	0.499487	1	38	0.0100747	0.000836765	0	-3.76402e-06	0.082819	0.00627071	0.0830561	4.32994	499.487	6596.86	6615.74	-85.6701	0.0000000E+000	0.0000000E+000	0.0000000E+000	85.6701	0.0000000E+000	0.0000000E+000	0.0000000E+000	-85.6701	0.0000000E+000	0.0000000E+000	0.0000000E+000	-4.32994	0.0000000E+000	0.0000000E+000	0.0000000E+000	4.32994	13.2073	85.6701	-5.70716e-07
2515.81	11.9352	0.824072	11.9636	-3.94974	04/11/2024 10:31:41.0307	1.00063	-0.00530628	76.7675	0.364235	1	38	0.0100666	0.000841437	0	-3.76056e-06	0.0833882	0.00575757	0.0835867	3.94974	364.235	5275.3	5287.86	-86.0503	0.0000000E+000	0.0000000E+000	0.0000000E+000	86.0503	0.0000000E+000	0.0000000E+000	0.0000000E+000	-86.0503	0.0000000E+000	0.0000000E+000	0.0000000E+000	-3.94974	0.0000000E+000	0.0000000E+000	0.0000000E+000	3.94974	14.4832	86.0503	3.45838e-09
3168.04	11.8697	0.755533	11.8937	-3.64209	04/11/2024 10:31:41.4956	1.00064	-0.00513101	66.493	0.268316	1	38	0.0100667	0.00084639	0	-4.62816e-06	0.083908	0.00534093	0.0840778	3.64209	268.316	4215.34	4223.88	-86.3579	0.0000000E+000	0.0000000E+000	0.0000000E+000	86.3579	0.0000000E+000	0.0000000E+000	0.0000000E+000	-86.3579	0.0000000E+000	0.0000000E+000	0.0000000E+000	-3.64209	0.0000000E+000	0.0000000E+000	0.0000000E+000	3.64209	15.7104	86.3579	-8.67606e-07
3986.28	11.7978	0.704335	11.8188	-3.41654	04/11/2024 10:31:41.9607	1.00064	-0.005778	56.6857	0.20132	1	38	0.0100688	0.00085193	0	-4.77932e-06	0.0844608	0.00504237	0.0846112	3.41654	201.32	3372.16	3378.16	-86.5835	0.0000000E+000	0.0000000E+000	0.0000000E+000	86.5835	0.0000000E+000	0.0000000E+000	0.0000000E+000	-86.5835	0.0000000E+000	0.0000000E+000	0.0000000E+000	-3.41654	0.0000000E+000	0.0000000E+000	0.0000000E+000	3.41654	16.7502	86.5835	-1.51161e-07
5021.61	11.7363	0.678128	11.7559	-3.30688	04/11/2024 10:31:42.4257	1.00064	-0.00547967	46.7375	0.155516	1	38	0.0100646	0.000856135	0	-4.86046e-06	0.0849219	0.00490681	0.0850636	3.30688	155.516	2691.52	2696.01	-86.6931	0.0000000E+000	0.0000000E+000	0.0000000E+000	86.6931	0.0000000E+000	0.0000000E+000	0.0000000E+000	-86.6931	0.0000000E+000	0.0000000E+000	0.0000000E+000	-3.30688	0.0000000E+000	0.0000000E+000	0.0000000E+000	3.30688	17.307	86.6931	-8.11411e-08
6322.64	11.6662	0.644567	11.684	-3.16243	04/11/2024 10:31:42.8132	1.00064	-0.0050527	39.0529	0.118852	1	38	0.0100572	0.000860765	0	-5.36527e-06	0.085457	0.00472157	0.0855873	3.16243	118.852	2151.14	2154.42	-86.8376	0.0000000E+000	0.0000000E+000	0.0000000E+000	86.8376	0.0000000E+000	0.0000000E+000	0.0000000E+000	-86.8376	0.0000000E+000	0.0000000E+000	0.0000000E+000	-3.16243	0.0000000E+000	0.0000000E+000	0.0000000E+000	3.16243	18.0993	86.8376	-5.04809e-07
7959.76	11.5819	0.631364	11.5991	-3.12028	04/11/2024 10:31:43.1348	1.00063	-0.00536594	31.6694	0.0938326	1	38	0.0100334	0.000865017	0	-6.14223e-06	0.086086	0.00469282	0.0862138	3.12028	93.8327	1721.28	1723.84	-86.8797	0.0000000E+000	0.0000000E+000	0.0000000E+000	86.8797	0.0000000E+000	0.0000000E+000	0.0000000E+000	-86.8797	0.0000000E+000	0.0000000E+000	0.0000000E+000	-3.12028	0.0000000E+000	0.0000000E+000	0.0000000E+000	3.12028	18.3442	86.8797	-7.76953e-07
10020.8	11.4996	0.611789	11.5159	-3.04531	04/11/2024 10:31:43.5495	1.00066	-0.00619379	25.9607	0.0732698	1	38	0.00989832	0.000859536	0	-5.43044e-06	0.0867139	0.00461325	0.0868365	3.04531	73.2699	1377.23	1379.18	-86.9547	0.0000000E+000	0.0000000E+000	0.0000000E+000	86.9547	0.0000000E+000	0.0000000E+000	0.0000000E+000	-86.9547	0.0000000E+000	0.0000000E+000	0.0000000E+000	-3.04531	0.0000000E+000	0.0000000E+000	0.0000000E+000	3.04531	18.7967	86.9547	7.11792e-07
12609.5	11.4012	0.599978	11.4169	-3.01237	04/11/2024 10:31:43.8345	1.00065	-0.00623667	21.0372	0.0580977	1	38	0.0102158	0.000894797	0	-6.53741e-06	0.0874681	0.00460295	0.0875892	3.01237	58.0976	1104.01	1105.54	-86.9876	0.0000000E+000	0.0000000E+000	0.0000000E+000	86.9876	0.0000000E+000	0.0000000E+000	0.0000000E+000	-86.9876	0.0000000E+000	0.0000000E+000	0.0000000E+000	-3.01237	0.0000000E+000	0.0000000E+000	0.0000000E+000	3.01237	19.0026	86.9876	-1.10697e-06
15875.5	11.3136	0.577778	11.3283	-2.92352	04/11/2024 10:31:44.1185	1.00066	-0.00567731	17.3513	0.0451357	1	38	0.0103711	0.000915499	0	-7.66843e-06	0.0881592	0.00450223	0.0882741	2.92352	45.1357	883.812	884.964	-87.0765	0.0000000E+000	0.0000000E+000	0.0000000E+000	87.0765	0.0000000E+000	0.0000000E+000	0.0000000E+000	-87.0765	0.0000000E+000	0.0000000E+000	0.0000000E+000	-2.92352	0.0000000E+000	0.0000000E+000	0.0000000E+000	2.92352	19.5812	87.0765	-1.13102e-06
19995.2	11.2156	0.547861	11.2289	-2.79658	04/11/2024 10:31:44.4025	1.00065	-0.00567358	14.5286	0.034585	1	38	0.0103724	0.000923717	0	-7.97509e-06	0.0889496	0.00434503	0.0890556	2.79658	34.585	708.009	708.853	-87.2034	0.0000000E+000	0.0000000E+000	0.0000000E+000	87.2034	0.0000000E+000	0.0000000E+000	0.0000000E+000	-87.2034	0.0000000E+000	0.0000000E+000	0.0000000E+000	-2.79658	0.0000000E+000	0.0000000E+000	0.0000000E+000	2.79658	20.4715	87.2034	-3.06657e-07
25172.6	11.121	0.51409	11.1328	-2.64673	04/11/2024 10:31:44.6865	1.00066	-0.0062665	12.2985	0.0262252	1	38	0.0101949	0.000915751	0	-8.65357e-06	0.0897284	0.00414788	0.0898243	2.64673	26.2252	567.313	567.919	-87.3533	0.0000000E+000	0.0000000E+000	0.0000000E+000	87.3533	0.0000000E+000	0.0000000E+000	0.0000000E+000	-87.3533	0.0000000E+000	0.0000000E+000	0.0000000E+000	-2.64673	0.0000000E+000	0.0000000E+000	0.0000000E+000	2.64673	21.6324	87.3533	-6.78482e-07
31686.1	11.0283	0.46805	11.0382	-2.43023	04/11/2024 10:31:44.9705	1.00065	-0.0056568	10.7315	0.0192951	1	38	0.00983282	0.0008908	0	-9.77633e-06	0.090513	0.00384146	0.0905945	2.43023	19.2951	454.635	455.044	-87.5698	0.0000000E+000	0.0000000E+000	0.0000000E+000	87.5698	0.0000000E+000	0.0000000E+000	0.0000000E+000	-87.5698	0.0000000E+000	0.0000000E+000	0.0000000E+000	-2.43023	0.0000000E+000	0.0000000E+000	0.0000000E+000	2.43023	23.5622	87.5698	-1.12276e-06
39888.3	10.9595	0.402735	10.9669	-2.10454	04/11/2024 10:31:45.2545	1.00063	-0.00592716	9.9073	0.0133607	1	38	0.00928699	0.000846822	0	-1.09325e-05	0.0911222	0.00334853	0.0911837	2.10454	13.3607	363.579	363.824	-87.8955	0.0000000E+000	0.0000000E+000	0.0000000E+000	87.8955	0.0000000E+000	0.0000000E+000	0.0000000E+000	-87.8955	0.0000000E+000	0.0000000E+000	0.0000000E+000	-2.10454	0.0000000E+000	0.0000000E+000	0.0000000E+000	2.10454	27.2126	87.8955	-1.1562e-06
50224.5	10.9116	0.353395	10.9174	-1.85499	04/11/2024 10:31:45.6735	1.00066	-0.00592157	8.96694	0.0093957	1	38	0.00982387	0.00089984	0	-1.14434e-05	0.0915493	0.002965	0.0915973	1.85499	9.39571	290.108	290.26	-88.145	0.0000000E+000	0.0000000E+000	0.0000000E+000	88.145	0.0000000E+000	0.0000000E+000	0.0000000E+000	-88.145	0.0000000E+000	0.0000000E+000	0.0000000E+000	-1.85499	0.0000000E+000	0.0000000E+000	0.0000000E+000	1.85499	30.8766	88.145	-5.10864e-07
63233	10.8602	0.29827	10.8643	-1.57321	04/11/2024 10:31:46.0925	1.00066	-0.00704588	8.43853	0.00636038	1	38	0.00990475	0.00091168	0	-1.22027e-05	0.09201	0.00252701	0.0920447	1.57321	6.36038	231.585	231.673	-88.4268	0.0000000E+000	0.0000000E+000	0.0000000E+000	88.4268	0.0000000E+000	0.0000000E+000	0.0000000E+000	-88.4268	0.0000000E+000	0.0000000E+000	0.0000000E+000	-1.57321	0.0000000E+000	0.0000000E+000	0.0000000E+000	1.57321	36.4106	88.4268	-7.59285e-07
79609.6	10.8245	0.2432	10.8272	-1.28708	04/11/2024 10:31:46.5115	1.00067	-0.00722487	8.22038	0.00414746	1	38	0.00980153	0.000905266	0	-1.39369e-05	0.0923363	0.00207457	0.0923596	1.28708	4.14747	184.598	184.645	-88.7129	0.0000000E+000	0.0000000E+000	0.0000000E+000	88.7129	0.0000000E+000	0.0000000E+000	0.0000000E+000	-88.7129	0.0000000E+000	0.0000000E+000	0.0000000E+000	-1.28708	0.0000000E+000	0.0000000E+000	0.0000000E+000	1.28708	44.5087	88.7129	-1.73422e-06
100226	10.7931	0.191384	10.7948	-1.01586	04/11/2024 10:31:46.9305	1.00066	-0.00664314	8.29723	0.00260802	1	38	0.00972537	0.000900929	0	-1.5332e-05	0.0926224	0.00164238	0.0926369	1.01586	2.60802	147.08	147.103	-88.9841	0.0000000E+000	0.0000000E+000	0.0000000E+000	88.9841	0.0000000E+000	0.0000000E+000	0.0000000E+000	-88.9841	0.0000000E+000	0.0000000E+000	0.0000000E+000	-1.01586	0.0000000E+000	0.0000000E+000	0.0000000E+000	1.01586	56.3953	88.9841	-1.39511e-06
126178	10.7793	0.149793	10.7804	-0.796152	04/11/2024 10:31:47.3495	1.00065	-0.00705707	8.4206	0.00162578	1	38	0.00952553	0.000883601	0	-1.588e-05	0.0927523	0.00128892	0.0927613	0.796152	1.62577	116.993	117.004	-89.2039	0.0000000E+000	0.0000000E+000	0.0000000E+000	89.2039	0.0000000E+000	0.0000000E+000	0.0000000E+000	-89.2039	0.0000000E+000	0.0000000E+000	0.0000000E+000	-0.796152	0.0000000E+000	0.0000000E+000	0.0000000E+000	0.796152	71.9613	89.2039	-5.48029e-07
158857	10.7563	0.10578	10.7569	-0.56344	04/11/2024 10:31:47.7685	1.00065	-0.006535	9.4713	0.000915894	1	38	0.00970202	0.000901937	0	-1.72661e-05	0.0929594	0.00091418	0.0929639	0.56344	0.915892	93.1336	93.1381	-89.4366	0.0000000E+000	0.0000000E+000	0.0000000E+000	89.4366	0.0000000E+000	0.0000000E+000	0.0000000E+000	-89.4366	0.0000000E+000	0.0000000E+000	0.0000000E+000	-0.56344	0.0000000E+000	0.0000000E+000	0.0000000E+000	0.56344	101.686	89.4366	-1.38604e-06
199998	10.7498	0.0543692	10.7499	-0.289783	04/11/2024 10:31:48.1875	1.00064	-0.00690231	14.6366	0.000374401	1	38	0.00956226	0.00088952	0	-1.79301e-05	0.0930228	0.000470482	0.093024	0.289783	0.374397	74.0259	74.0268	-89.7102	0.0000000E+000	0.0000000E+000	0.0000000E+000	89.7102	0.0000000E+000	0.0000000E+000	0.0000000E+000	-89.7102	0.0000000E+000	0.0000000E+000	0.0000000E+000	-0.289783	0.0000000E+000	0.0000000E+000	0.0000000E+000	0.289783	197.718	89.7102	-6.63992e-07