File: MPT files/1_58V_10cyc.mpt
EC-Lab ASCII FILE
Nb header lines : 65

Potentio Electrochemical Impedance Spectroscopy

Run on channel : 1 (SN 11321)
User :
Electrode connection : standard
Potential control : Ewe
Ewe ctrl range : min = -10.00 V. max = 10.00 V
Ewe.I filtering : 50 kHz
Safety Limits :
	Do not start on E overload
Channel : Grounded
Acquisition started on : 04/11/2024 10:37:55.468
Loaded Setting File :  D:\ECLab Data\bh\Ir\Ir impedance\settings\Impedence\3rd\1.2 to 1.58 V.mps
Saved on :
	File : 1.2 to 1_20_PEIS_C01.mpr
	Directory : D:\ECLab Data\bh\Ir\Ir impedance\Repeat to remove negative imped\10 cycles imped\1.2 to 1.58\
	Host : 127.0.0.1
Device : SP-300 (SN 1287)
Address : USB
EC-Lab for windows v11.50 (software)
Internet server v11.50 (firmware)
Command interpretor v11.50 (firmware)
Electrode material :
Initial state :
Electrolyte :
Comments :
Cable : standard
Electrode surface area : 0.001 cm�
Characteristic mass : 0.001 g
Equivalent Weight : 0.000 g/eq.
Density : 0.000 g/cm3
Volume (V) : 0.001 cm�
Cycle Definition : Charge/Discharge alternance
Mode                Single sine
E (V)               1.5800
vs.                 Ref
tE (h:m:s)          0:00:0.0000
record              0
dI                  0.000
unit dI             mA
dt (s)              0.000
fi                  1.000
unit fi             Hz
ff                  0.200
unit ff             MHz
Nd                  10
Points              per decade
spacing             Logarithmic
Va (mV)             10.0
pw                  0.10
Na                  2
corr                0
E range min (V)     -10.000
E range max (V)     10.000
I Range             Auto
Bandwidth           8
nc cycles           0
goto Ns'            0
nr cycles           0
inc. cycle          0

freq/Hz	Re(Z)/Ohm	-Im(Z)/Ohm	|Z|/Ohm	Phase(Z)/deg	time/s	<Ewe>/V	<I>/mA	Cs/�F	Cp/�F	cycle number	I Range	|Ewe|/V	|I|/A	Ns	(Q-Qo)/mA.h	Re(Y)/Ohm-1	Im(Y)/Ohm-1	|Y|/Ohm-1	Phase(Y)/deg	Re(C)/nF	Im(C)/nF	|C|/nF	Phase(C)/deg	Re(M)	Im(M)	|M|	Phase(M)/deg	Re(Permittivity)	Im(Permittivity)	|Permittivity|	Phase(Permittivity)/deg	Re(Resistivity)/Ohm.cm	Im(Resistivity)/Ohm.cm	|Resistivity|/Ohm.cm	Phase(Resistivity)/deg	Re(Conductivity)/mS/cm	Im(Conductivity)/mS/cm	|Conductivity|/mS/cm	Phase(Conductivity)/deg	Tan(Delta)	Loss Angle(Delta)/deg	dq/mA.h
1.00006	66.4605	4.16219	66.5907	-3.58356	04/11/2024 10:47:39.8647	1.58052	0.323527	38235.9	149.379	1	40	0.0100697	0.000151218	0	0.000195291	0.0149878	0.000938632	0.0150171	3.58356	149379	2.38523e+06	2.3899e+06	-86.4164	0.0000000E+000	0.0000000E+000	0.0000000E+000	86.4164	0.0000000E+000	0.0000000E+000	0.0000000E+000	-86.4164	0.0000000E+000	0.0000000E+000	0.0000000E+000	-3.58356	0.0000000E+000	0.0000000E+000	0.0000000E+000	3.58356	15.9677	86.4164	0.000195291
1.25968	69.7262	4.85149	69.8948	-3.98018	04/11/2024 10:47:41.5705	1.58051	0.311449	26042.7	125.472	1	40	0.0100703	0.000144077	0	0.000339514	0.0142727	0.000993083	0.0143072	3.98018	125472	1.8033e+06	1.80766e+06	-86.0198	0.0000000E+000	0.0000000E+000	0.0000000E+000	86.0198	0.0000000E+000	0.0000000E+000	0.0000000E+000	-86.0198	0.0000000E+000	0.0000000E+000	0.0000000E+000	-3.98018	0.0000000E+000	0.0000000E+000	0.0000000E+000	3.98018	14.3721	86.0198	0.000144224
1.58469	71.4471	5.63881	71.6693	-4.51259	04/11/2024 10:47:42.9357	1.58051	0.304372	17811	110.255	1	40	0.0100673	0.000140468	0	0.000453088	0.0139097	0.0010978	0.013953	4.51259	110255	1.397e+06	1.40134e+06	-85.4874	0.0000000E+000	0.0000000E+000	0.0000000E+000	85.4874	0.0000000E+000	0.0000000E+000	0.0000000E+000	-85.4874	0.0000000E+000	0.0000000E+000	0.0000000E+000	-4.51259	0.0000000E+000	0.0000000E+000	0.0000000E+000	4.51259	12.6706	85.4874	0.000113574
1.99502	72.7898	6.56566	73.0853	-5.15415	04/11/2024 10:47:44.0288	1.58051	0.298901	12150.5	98.0599	1	40	0.0100721	0.000137812	0	0.000545211	0.0136273	0.00122919	0.0136826	5.15415	98059.9	1.08713e+06	1.09155e+06	-84.8458	0.0000000E+000	0.0000000E+000	0.0000000E+000	84.8458	0.0000000E+000	0.0000000E+000	0.0000000E+000	-84.8458	0.0000000E+000	0.0000000E+000	0.0000000E+000	-5.15415	0.0000000E+000	0.0000000E+000	0.0000000E+000	5.15415	11.0864	84.8458	9.21221e-05
2.51125	73.8509	8.33337	74.3196	-6.43805	04/11/2024 10:47:44.9058	1.58051	0.294716	7605.19	95.6192	1	40	0.0100691	0.000135484	0	0.000619252	0.0133706	0.00150874	0.0134554	6.43805	95619.1	847383	852761	-83.562	0.0000000E+000	0.0000000E+000	0.0000000E+000	83.562	0.0000000E+000	0.0000000E+000	0.0000000E+000	-83.562	0.0000000E+000	0.0000000E+000	0.0000000E+000	-6.43805	0.0000000E+000	0.0000000E+000	0.0000000E+000	6.43805	8.86207	83.562	7.40412e-05
3.16296	73.9296	10.6897	74.6984	-8.22752	04/11/2024 10:47:45.6106	1.5805	0.291745	4707.2	96.398	1	40	0.0100781	0.000134917	0	0.000675352	0.0132494	0.00191576	0.0133872	8.22752	96398	666687	673620	-81.7725	0.0000000E+000	0.0000000E+000	0.0000000E+000	81.7725	0.0000000E+000	0.0000000E+000	0.0000000E+000	-81.7725	0.0000000E+000	0.0000000E+000	0.0000000E+000	-8.22752	0.0000000E+000	0.0000000E+000	0.0000000E+000	8.22752	6.91598	81.7725	5.60998e-05
3.9819	73.2075	13.0056	74.3538	-10.0737	04/11/2024 10:47:46.1806	1.5805	0.289744	3073.25	94.0275	1	40	0.0100679	0.000135405	0	0.000718835	0.0132419	0.00235248	0.0134492	10.0737	94027.5	529272	537559	-79.9263	0.0000000E+000	0.0000000E+000	0.0000000E+000	79.9263	0.0000000E+000	0.0000000E+000	0.0000000E+000	-79.9263	0.0000000E+000	0.0000000E+000	0.0000000E+000	-10.0737	0.0000000E+000	0.0000000E+000	0.0000000E+000	10.0737	5.62891	79.9263	4.34832e-05
5.01444	71.9154	15.5122	73.5694	-12.1723	04/11/2024 10:47:46.6438	1.58051	0.288293	2046.08	90.9658	1	40	0.0100699	0.000136877	0	0.000756403	0.013287	0.00286603	0.0135926	12.1723	90965.8	421721	431420	-77.8277	0.0000000E+000	0.0000000E+000	0.0000000E+000	77.8277	0.0000000E+000	0.0000000E+000	0.0000000E+000	-77.8277	0.0000000E+000	0.0000000E+000	0.0000000E+000	-12.1723	0.0000000E+000	0.0000000E+000	0.0000000E+000	12.1723	4.63604	77.8277	3.75679e-05
6.31058	70.2638	18.7615	72.7254	-14.95	04/11/2024 10:47:47.0228	1.58052	0.286749	1344.26	89.4633	1	40	0.0100694	0.000138458	0	0.000786375	0.0132849	0.00354727	0.0137503	14.95	89463.3	335050	346788	-75.0499	0.0000000E+000	0.0000000E+000	0.0000000E+000	75.0499	0.0000000E+000	0.0000000E+000	0.0000000E+000	-75.0499	0.0000000E+000	0.0000000E+000	0.0000000E+000	-14.95	0.0000000E+000	0.0000000E+000	0.0000000E+000	14.95	3.74511	75.0499	2.99727e-05
7.94761	67.4623	22.111	70.9934	-18.1467	04/11/2024 10:47:47.5971	1.58051	0.285045	905.682	87.8528	1	40	0.0100744	0.000141907	0	0.000830793	0.0133852	0.00438704	0.0140858	18.1467	87852.8	268046	282076	-71.8533	0.0000000E+000	0.0000000E+000	0.0000000E+000	71.8533	0.0000000E+000	0.0000000E+000	0.0000000E+000	-71.8533	0.0000000E+000	0.0000000E+000	0.0000000E+000	-18.1467	0.0000000E+000	0.0000000E+000	0.0000000E+000	18.1467	3.05108	71.8533	4.44178e-05
10.0032	63.8088	25.7259	68.7996	-21.9579	04/11/2024 10:47:48.3143	1.58053	0.282033	618.456	86.4727	1	39	0.0100693	0.000146357	0	0.000885225	0.0134806	0.00543499	0.014535	21.9579	86472.7	214481	231257	-68.0421	0.0000000E+000	0.0000000E+000	0.0000000E+000	68.0421	0.0000000E+000	0.0000000E+000	0.0000000E+000	-68.0421	0.0000000E+000	0.0000000E+000	0.0000000E+000	-21.9579	0.0000000E+000	0.0000000E+000	0.0000000E+000	21.9579	2.48033	68.0421	5.44317e-05
12.6008	58.786	28.8686	65.4919	-26.1547	04/11/2024 10:47:48.8585	1.58051	0.280065	437.518	85.0105	1	39	0.0100657	0.000153694	0	0.000926379	0.0137056	0.00673055	0.0152691	26.1547	85010.5	173109	192857	-63.8453	0.0000000E+000	0.0000000E+000	0.0000000E+000	63.8453	0.0000000E+000	0.0000000E+000	0.0000000E+000	-63.8453	0.0000000E+000	0.0000000E+000	0.0000000E+000	-26.1547	0.0000000E+000	0.0000000E+000	0.0000000E+000	26.1547	2.03633	63.8453	4.1154e-05
15.8576	52.7045	31.0656	61.1787	-30.5163	04/11/2024 10:47:49.2996	1.5805	0.278894	323.075	83.3032	1	39	0.0100661	0.000164536	0	0.000959912	0.0140814	0.00830001	0.0163456	30.5163	83303.2	141329	164052	-59.4837	0.0000000E+000	0.0000000E+000	0.0000000E+000	59.4837	0.0000000E+000	0.0000000E+000	0.0000000E+000	-59.4837	0.0000000E+000	0.0000000E+000	0.0000000E+000	-30.5163	0.0000000E+000	0.0000000E+000	0.0000000E+000	30.5163	1.69656	59.4837	3.35336e-05
19.9681	45.8905	31.9754	55.9318	-34.8678	04/11/2024 10:47:49.7647	1.58051	0.277389	249.269	81.467	1	39	0.01007	0.00018004	0	0.000995158	0.0146692	0.0102211	0.0178789	34.8678	81467.1	116920	142503	-55.1322	0.0000000E+000	0.0000000E+000	0.0000000E+000	55.1322	0.0000000E+000	0.0000000E+000	0.0000000E+000	-55.1322	0.0000000E+000	0.0000000E+000	0.0000000E+000	-34.8678	0.0000000E+000	0.0000000E+000	0.0000000E+000	34.8678	1.43518	55.1322	3.52452e-05
25.1368	38.9015	31.4112	49.9999	-38.9193	04/11/2024 10:47:50.2263	1.5805	0.276142	201.57	79.553	1	39	0.0100751	0.000201502	0	0.0010301	0.0155607	0.0125645	0.02	38.9193	79553	98523.3	126631	-51.0807	0.0000000E+000	0.0000000E+000	0.0000000E+000	51.0807	0.0000000E+000	0.0000000E+000	0.0000000E+000	-51.0807	0.0000000E+000	0.0000000E+000	0.0000000E+000	-38.9193	0.0000000E+000	0.0000000E+000	0.0000000E+000	38.9193	1.23846	51.0807	3.49415e-05
31.6509	32.4837	29.4583	43.8518	-42.2037	04/11/2024 10:47:50.6699	1.58051	0.274702	170.697	77.0312	1	39	0.0100741	0.000229731	0	0.00106327	0.0168924	0.0153191	0.0228041	42.2037	77031.2	84942.5	114669	-47.7963	0.0000000E+000	0.0000000E+000	0.0000000E+000	47.7963	0.0000000E+000	0.0000000E+000	0.0000000E+000	-47.7963	0.0000000E+000	0.0000000E+000	0.0000000E+000	-42.2037	0.0000000E+000	0.0000000E+000	0.0000000E+000	42.2037	1.1027	47.7963	3.31707e-05
39.8343	27.0248	26.5221	37.865	-44.4622	04/11/2024 10:47:51.1372	1.5805	0.272971	150.645	73.9085	1	39	0.0100729	0.000266022	0	0.00109762	0.0188489	0.0184983	0.0264096	44.4622	73908.5	75309.2	105517	-45.5378	0.0000000E+000	0.0000000E+000	0.0000000E+000	45.5378	0.0000000E+000	0.0000000E+000	0.0000000E+000	-45.5378	0.0000000E+000	0.0000000E+000	0.0000000E+000	-44.4622	0.0000000E+000	0.0000000E+000	0.0000000E+000	44.4622	1.01895	45.5378	3.43512e-05
50.1444	22.7245	23.147	32.4374	-45.5277	04/11/2024 10:47:51.6018	1.5805	0.271139	137.121	69.8232	1	39	0.0100775	0.000310676	0	0.0011319	0.0215974	0.021999	0.0308286	45.5277	69823.2	68548.7	97847.9	-44.4723	0.0000000E+000	0.0000000E+000	0.0000000E+000	44.4723	0.0000000E+000	0.0000000E+000	0.0000000E+000	-44.4723	0.0000000E+000	0.0000000E+000	0.0000000E+000	-45.5277	0.0000000E+000	0.0000000E+000	0.0000000E+000	45.5277	0.981747	44.4723	3.4279e-05
63.1607	19.5071	19.6688	27.7018	-45.2365	04/11/2024 10:47:52.0772	1.5805	0.269094	128.114	64.5856	1	39	0.0100809	0.000363908	0	0.00116661	0.0254201	0.0256308	0.0360988	45.2365	64585.6	64054.7	90963.1	-44.7635	0.0000000E+000	0.0000000E+000	0.0000000E+000	44.7635	0.0000000E+000	0.0000000E+000	0.0000000E+000	-44.7635	0.0000000E+000	0.0000000E+000	0.0000000E+000	-45.2365	0.0000000E+000	0.0000000E+000	0.0000000E+000	45.2365	0.99178	44.7636	3.47114e-05
79.5163	17.21	16.429	23.7928	-43.67	04/11/2024 10:47:52.5456	1.58051	0.26694	121.83	58.0877	1	39	0.0100868	0.000423945	0	0.0012007	0.0304012	0.0290215	0.0420295	43.67	58087.7	60849.2	84123.7	-46.33	0.0000000E+000	0.0000000E+000	0.0000000E+000	46.33	0.0000000E+000	0.0000000E+000	0.0000000E+000	-46.33	0.0000000E+000	0.0000000E+000	0.0000000E+000	-43.67	0.0000000E+000	0.0000000E+000	0.0000000E+000	43.67	1.04754	46.33	3.40873e-05
100.096	15.6284	13.5275	20.6698	-40.8787	04/11/2024 10:47:53.0102	1.5805	0.264601	117.539	50.3441	1	39	0.0100932	0.000488306	0	0.00123432	0.0365798	0.0316626	0.0483797	40.8787	50344.1	58162.5	76924.7	-49.1213	0.0000000E+000	0.0000000E+000	0.0000000E+000	49.1213	0.0000000E+000	0.0000000E+000	0.0000000E+000	-49.1213	0.0000000E+000	0.0000000E+000	0.0000000E+000	-40.8787	0.0000000E+000	0.0000000E+000	0.0000000E+000	40.8787	1.1553	49.1213	3.36208e-05
126.008	14.5376	11.0754	18.2759	-37.3018	04/11/2024 10:47:53.4718	1.5805	0.262154	114.041	41.8819	1	39	0.0101063	0.000552985	0	0.00126684	0.0435249	0.0331592	0.054717	37.3018	41881.9	54974.3	69110.5	-52.6982	0.0000000E+000	0.0000000E+000	0.0000000E+000	52.6982	0.0000000E+000	0.0000000E+000	0.0000000E+000	-52.6982	0.0000000E+000	0.0000000E+000	0.0000000E+000	-37.3018	0.0000000E+000	0.0000000E+000	0.0000000E+000	37.3018	1.3126	52.6982	3.2517e-05
158.63	13.7946	9.00801	16.4753	-33.1449	04/11/2024 10:47:53.9391	1.58051	0.260083	111.38	33.2965	1	39	0.010115	0.000613952	0	0.00129968	0.0508209	0.0331865	0.0606969	33.1449	33296.4	50989.3	60897.9	-56.8551	0.0000000E+000	0.0000000E+000	0.0000000E+000	56.8551	0.0000000E+000	0.0000000E+000	0.0000000E+000	-56.8551	0.0000000E+000	0.0000000E+000	0.0000000E+000	-33.1449	0.0000000E+000	0.0000000E+000	0.0000000E+000	33.1449	1.53137	56.8551	3.28462e-05
199.681	13.2908	7.29756	15.1624	-28.7698	04/11/2024 10:47:54.6587	1.58051	0.25121	109.221	25.3002	1	38	0.0100764	0.000664565	0	0.00134773	0.0578113	0.0317424	0.0659525	28.7698	25300.2	46078.3	52567.2	-61.2302	0.0000000E+000	0.0000000E+000	0.0000000E+000	61.2302	0.0000000E+000	0.0000000E+000	0.0000000E+000	-61.2302	0.0000000E+000	0.0000000E+000	0.0000000E+000	-28.7698	0.0000000E+000	0.0000000E+000	0.0000000E+000	28.7698	1.82127	61.2302	4.80444e-05
251.529	12.9391	5.91418	14.2266	-24.5642	04/11/2024 10:47:55.1202	1.58052	0.249032	106.988	18.4894	1	38	0.0100748	0.000708166	0	0.00137931	0.0639292	0.0292207	0.0702907	24.5642	18489.4	40451.1	44476.4	-65.4358	0.0000000E+000	0.0000000E+000	0.0000000E+000	65.4358	0.0000000E+000	0.0000000E+000	0.0000000E+000	-65.4358	0.0000000E+000	0.0000000E+000	0.0000000E+000	-24.5642	0.0000000E+000	0.0000000E+000	0.0000000E+000	24.5642	2.1878	65.4358	3.15826e-05
316.519	12.7099	4.81546	13.5916	-20.7504	04/11/2024 10:47:55.5834	1.58051	0.246847	104.42	13.1074	1	38	0.010079	0.000741565	0	0.00141133	0.0688024	0.0260674	0.073575	20.7504	13107.4	34595.8	36995.6	-69.2496	0.0000000E+000	0.0000000E+000	0.0000000E+000	69.2496	0.0000000E+000	0.0000000E+000	0.0000000E+000	-69.2496	0.0000000E+000	0.0000000E+000	0.0000000E+000	-20.7504	0.0000000E+000	0.0000000E+000	0.0000000E+000	20.7504	2.6394	69.2496	3.20232e-05
398.597	12.5425	3.91976	13.1407	-17.355	04/11/2024 10:47:56.0501	1.58051	0.245805	101.865	9.06372	1	38	0.0100784	0.000766961	0	0.00144315	0.0726349	0.0226997	0.0760993	17.355	9063.72	29002.2	30385.5	-72.645	0.0000000E+000	0.0000000E+000	0.0000000E+000	72.645	0.0000000E+000	0.0000000E+000	0.0000000E+000	-72.645	0.0000000E+000	0.0000000E+000	0.0000000E+000	-17.355	0.0000000E+000	0.0000000E+000	0.0000000E+000	17.355	3.19981	72.645	3.18139e-05
501.766	12.4172	3.211	12.8256	-14.4987	04/11/2024 10:47:56.5137	1.58051	0.243782	98.7822	6.19156	1	38	0.0100784	0.000785802	0	0.0014738	0.0754857	0.0195201	0.0779688	14.4987	6191.56	23943.3	24730.9	-75.5013	0.0000000E+000	0.0000000E+000	0.0000000E+000	75.5013	0.0000000E+000	0.0000000E+000	0.0000000E+000	-75.5013	0.0000000E+000	0.0000000E+000	0.0000000E+000	-14.4987	0.0000000E+000	0.0000000E+000	0.0000000E+000	14.4987	3.86708	75.5013	3.06554e-05
631.82	12.3182	2.65664	12.6014	-12.1705	04/11/2024 10:47:56.9768	1.58051	0.242497	94.8188	4.21428	1	38	0.0100858	0.000800376	0	0.00150405	0.0775728	0.01673	0.0793564	12.1705	4214.28	19540.5	19989.8	-77.8295	0.0000000E+000	0.0000000E+000	0.0000000E+000	77.8295	0.0000000E+000	0.0000000E+000	0.0000000E+000	-77.8295	0.0000000E+000	0.0000000E+000	0.0000000E+000	-12.1705	0.0000000E+000	0.0000000E+000	0.0000000E+000	12.1705	4.63675	77.8295	3.02433e-05
795.253	12.2086	2.2088	12.4068	-10.2551	04/11/2024 10:47:57.4403	1.5805	0.241261	90.6065	2.8718	1	38	0.0100708	0.000811716	0	0.00153408	0.0793135	0.0143496	0.0806012	10.2551	2871.79	15873.1	16130.8	-79.7449	0.0000000E+000	0.0000000E+000	0.0000000E+000	79.7449	0.0000000E+000	0.0000000E+000	0.0000000E+000	-79.7449	0.0000000E+000	0.0000000E+000	0.0000000E+000	-10.2551	0.0000000E+000	0.0000000E+000	0.0000000E+000	10.2551	5.52725	79.7449	3.00329e-05
1001.6	12.134	1.84891	12.2741	-8.66377	04/11/2024 10:47:57.9051	1.5805	0.240463	85.9426	1.95013	1	38	0.0100788	0.000821144	0	0.00156388	0.080543	0.0122727	0.0814727	8.66377	1950.13	12798.3	12946	-81.3362	0.0000000E+000	0.0000000E+000	0.0000000E+000	81.3362	0.0000000E+000	0.0000000E+000	0.0000000E+000	-81.3362	0.0000000E+000	0.0000000E+000	0.0000000E+000	-8.66377	0.0000000E+000	0.0000000E+000	0.0000000E+000	8.66377	6.56278	81.3362	2.98007e-05
1260.4	12.0566	1.56792	12.1582	-7.40952	04/11/2024 10:47:58.3703	1.58051	0.239587	80.5355	1.33937	1	38	0.0100812	0.000829172	0	0.00159416	0.0815624	0.0106069	0.0822492	7.40952	1339.37	10299.2	10385.9	-82.5905	0.0000000E+000	0.0000000E+000	0.0000000E+000	82.5905	0.0000000E+000	0.0000000E+000	0.0000000E+000	-82.5905	0.0000000E+000	0.0000000E+000	0.0000000E+000	-7.40952	0.0000000E+000	0.0000000E+000	0.0000000E+000	7.40952	7.68957	82.5905	3.02766e-05
1587.54	11.979	1.3463	12.0544	-6.41249	04/11/2024 10:47:58.8351	1.5805	0.238625	74.4652	0.928855	1	38	0.0100786	0.000836095	0	0.00162369	0.0824384	0.00926515	0.0829574	6.41249	928.854	8264.66	8316.69	-83.5875	0.0000000E+000	0.0000000E+000	0.0000000E+000	83.5875	0.0000000E+000	0.0000000E+000	0.0000000E+000	-83.5875	0.0000000E+000	0.0000000E+000	0.0000000E+000	-6.41249	0.0000000E+000	0.0000000E+000	0.0000000E+000	6.41249	8.89769	83.5875	2.95295e-05
1998.08	11.9128	1.16782	11.9699	-5.59887	04/11/2024 10:47:59.3006	1.5805	0.237959	68.2073	0.649237	1	38	0.0100803	0.000842141	0	0.00165463	0.0831445	0.00815073	0.083543	5.59887	649.237	6622.78	6654.52	-84.4011	0.0000000E+000	0.0000000E+000	0.0000000E+000	84.4011	0.0000000E+000	0.0000000E+000	0.0000000E+000	-84.4011	0.0000000E+000	0.0000000E+000	0.0000000E+000	-5.59887	0.0000000E+000	0.0000000E+000	0.0000000E+000	5.59887	10.2009	84.4011	3.09484e-05
2515.81	11.8443	1.03242	11.8892	-4.98166	04/11/2024 10:47:59.7653	1.5805	0.237426	61.2756	0.462057	1	38	0.0100826	0.000848049	0	0.00168515	0.0837925	0.00730386	0.0841102	4.98166	462.057	5300.88	5320.98	-85.0183	0.0000000E+000	0.0000000E+000	0.0000000E+000	85.0183	0.0000000E+000	0.0000000E+000	0.0000000E+000	-85.0183	0.0000000E+000	0.0000000E+000	0.0000000E+000	-4.98166	0.0000000E+000	0.0000000E+000	0.0000000E+000	4.98166	11.4724	85.0183	3.05146e-05
3168.04	11.7752	0.930957	11.8119	-4.52045	04/11/2024 10:48:00.2302	1.5805	0.236769	53.9635	0.33521	1	38	0.010083	0.000853627	0	0.0017157	0.0843967	0.00667248	0.0846601	4.52045	335.209	4239.9	4253.13	-85.4796	0.0000000E+000	0.0000000E+000	0.0000000E+000	85.4796	0.0000000E+000	0.0000000E+000	0.0000000E+000	-85.4796	0.0000000E+000	0.0000000E+000	0.0000000E+000	-4.52045	0.0000000E+000	0.0000000E+000	0.0000000E+000	4.52045	12.6485	85.4796	3.05521e-05
3986.28	11.7048	0.850717	11.7357	-4.15701	04/11/2024 10:48:00.6953	1.58051	0.236042	46.9318	0.246617	1	38	0.0100771	0.000858675	0	0.00174561	0.0849862	0.00617689	0.0852104	4.15701	246.617	3393.13	3402.08	-85.843	0.0000000E+000	0.0000000E+000	0.0000000E+000	85.843	0.0000000E+000	0.0000000E+000	0.0000000E+000	-85.843	0.0000000E+000	0.0000000E+000	0.0000000E+000	-4.15701	0.0000000E+000	0.0000000E+000	0.0000000E+000	4.15701	13.7587	85.843	2.99063e-05
5021.61	11.6297	0.781389	11.6559	-3.84388	04/11/2024 10:48:01.1603	1.5805	0.235304	40.5611	0.182286	1	38	0.0100762	0.000864475	0	0.00177571	0.0856004	0.00575143	0.0857934	3.84388	182.286	2713.02	2719.14	-86.1561	0.0000000E+000	0.0000000E+000	0.0000000E+000	86.1561	0.0000000E+000	0.0000000E+000	0.0000000E+000	-86.1561	0.0000000E+000	0.0000000E+000	0.0000000E+000	-3.84388	0.0000000E+000	0.0000000E+000	0.0000000E+000	3.84388	14.8833	86.1561	3.01076e-05
6322.64	11.546	0.735177	11.5693	-3.64333	04/11/2024 10:48:01.5478	1.5805	0.235196	34.2397	0.13826	1	38	0.0100657	0.000870029	0	0.0018006	0.0862607	0.00549257	0.0864354	3.64333	138.26	2171.37	2175.77	-86.3567	0.0000000E+000	0.0000000E+000	0.0000000E+000	86.3567	0.0000000E+000	0.0000000E+000	0.0000000E+000	-86.3567	0.0000000E+000	0.0000000E+000	0.0000000E+000	-3.64333	0.0000000E+000	0.0000000E+000	0.0000000E+000	3.64333	15.705	86.3567	2.48869e-05
7959.76	11.467	0.7017	11.4885	-3.50172	04/11/2024 10:48:01.8694	1.5805	0.234161	28.495	0.106303	1	38	0.010047	0.000874529	0	0.0018205	0.0868811	0.00531649	0.0870436	3.50172	106.303	1737.18	1740.43	-86.4983	0.0000000E+000	0.0000000E+000	0.0000000E+000	86.4983	0.0000000E+000	0.0000000E+000	0.0000000E+000	-86.4983	0.0000000E+000	0.0000000E+000	0.0000000E+000	-3.50172	0.0000000E+000	0.0000000E+000	0.0000000E+000	3.50172	16.3418	86.4983	1.98947e-05
10020.8	11.3761	0.672534	11.3959	-3.38329	04/11/2024 10:48:02.2841	1.58051	0.233024	23.6159	0.0822494	1	38	0.00990409	0.00086909	0	0.00184839	0.0875976	0.00517862	0.0877506	3.38329	82.2493	1391.27	1393.7	-86.6167	0.0000000E+000	0.0000000E+000	0.0000000E+000	86.6167	0.0000000E+000	0.0000000E+000	0.0000000E+000	-86.6167	0.0000000E+000	0.0000000E+000	0.0000000E+000	-3.38329	0.0000000E+000	0.0000000E+000	0.0000000E+000	3.38329	16.9152	86.6167	2.78935e-05
12609.5	11.2735	0.634228	11.2914	-3.21996	04/11/2024 10:48:02.5681	1.58051	0.231985	19.9011	0.0627877	1	38	0.010222	0.000905298	0	0.00186673	0.0884234	0.00497453	0.0885632	3.21996	62.7877	1116.07	1117.83	-86.78	0.0000000E+000	0.0000000E+000	0.0000000E+000	86.78	0.0000000E+000	0.0000000E+000	0.0000000E+000	-86.78	0.0000000E+000	0.0000000E+000	0.0000000E+000	-3.21996	0.0000000E+000	0.0000000E+000	0.0000000E+000	3.21996	17.7752	86.78	1.83383e-05
15875.5	11.1819	0.59288	11.1976	-3.03507	04/11/2024 10:48:02.8521	1.58051	0.231334	16.9093	0.0474035	1	38	0.010376	0.000926632	0	0.00188524	0.0891798	0.00472844	0.089305	3.03507	47.4035	894.043	895.299	-86.9649	0.0000000E+000	0.0000000E+000	0.0000000E+000	86.9649	0.0000000E+000	0.0000000E+000	0.0000000E+000	-86.9649	0.0000000E+000	0.0000000E+000	0.0000000E+000	-3.03507	0.0000000E+000	0.0000000E+000	0.0000000E+000	3.03507	18.8603	86.9649	1.85161e-05
19995.2	11.0843	0.541253	11.0976	-2.79556	04/11/2024 10:48:03.1361	1.58051	0.231094	14.706	0.0349817	1	38	0.0103696	0.000934407	0	0.00190277	0.0900027	0.00439487	0.09011	2.79556	34.9817	716.392	717.245	-87.2044	0.0000000E+000	0.0000000E+000	0.0000000E+000	87.2044	0.0000000E+000	0.0000000E+000	0.0000000E+000	-87.2044	0.0000000E+000	0.0000000E+000	0.0000000E+000	-2.79556	0.0000000E+000	0.0000000E+000	0.0000000E+000	2.79556	20.479	87.2044	1.75239e-05
25172.6	11.001	0.48916	11.0119	-2.54598	04/11/2024 10:48:03.4191	1.58051	0.230551	12.9253	0.0255048	1	38	0.010188	0.00092518	0	0.00192075	0.0907215	0.00403394	0.0908112	2.54598	25.5048	573.592	574.158	-87.454	0.0000000E+000	0.0000000E+000	0.0000000E+000	87.454	0.0000000E+000	0.0000000E+000	0.0000000E+000	-87.454	0.0000000E+000	0.0000000E+000	0.0000000E+000	-2.54598	0.0000000E+000	0.0000000E+000	0.0000000E+000	2.54598	22.4896	87.454	1.79842e-05
31686.1	10.9399	0.43215	10.9484	-2.26213	04/11/2024 10:48:03.7041	1.58052	0.23051	11.623	0.0181085	1	38	0.00982913	0.000897767	0	0.00193833	0.0912662	0.00360522	0.0913373	2.26213	18.1085	458.418	458.775	-87.7379	0.0000000E+000	0.0000000E+000	0.0000000E+000	87.7379	0.0000000E+000	0.0000000E+000	0.0000000E+000	-87.7379	0.0000000E+000	0.0000000E+000	0.0000000E+000	-2.26213	0.0000000E+000	0.0000000E+000	0.0000000E+000	2.26213	25.315	87.7379	1.75788e-05
39888.3	10.8725	0.367532	10.8787	-1.93608	04/11/2024 10:48:03.9881	1.58053	0.229509	10.8562	0.0123913	1	38	0.00927167	0.000852278	0	0.00195636	0.0918704	0.00310558	0.0919229	1.93608	12.3913	366.565	366.774	-88.0639	0.0000000E+000	0.0000000E+000	0.0000000E+000	88.0639	0.0000000E+000	0.0000000E+000	0.0000000E+000	-88.0639	0.0000000E+000	0.0000000E+000	0.0000000E+000	-1.93608	0.0000000E+000	0.0000000E+000	0.0000000E+000	1.93608	29.5824	88.0639	1.80273e-05
50224.5	10.828	0.305162	10.8323	-1.61433	04/11/2024 10:48:04.4081	1.58052	0.229425	10.3842	0.00824131	1	38	0.00979059	0.000903837	0	0.0019822	0.0922802	0.00260071	0.0923169	1.61433	8.24131	292.424	292.54	-88.3857	0.0000000E+000	0.0000000E+000	0.0000000E+000	88.3857	0.0000000E+000	0.0000000E+000	0.0000000E+000	-88.3857	0.0000000E+000	0.0000000E+000	0.0000000E+000	-1.61433	0.0000000E+000	0.0000000E+000	0.0000000E+000	1.61433	35.4827	88.3857	2.58375e-05
63233	10.795	0.256071	10.7981	-1.35887	04/11/2024 10:48:04.8271	1.58053	0.228724	9.82916	0.0055277	1	38	0.00987045	0.000914095	0	0.00200814	0.0925832	0.00219618	0.0926092	1.35887	5.52772	233.028	233.094	-88.6411	0.0000000E+000	0.0000000E+000	0.0000000E+000	88.6411	0.0000000E+000	0.0000000E+000	0.0000000E+000	-88.6411	0.0000000E+000	0.0000000E+000	0.0000000E+000	-1.35887	0.0000000E+000	0.0000000E+000	0.0000000E+000	1.35887	42.1564	88.6411	2.59456e-05
79609.6	10.777	0.204805	10.7789	-1.08871	04/11/2024 10:48:05.2461	1.58052	0.22812	9.76146	0.00352407	1	38	0.00981853	0.000910901	0	0.00203295	0.0927569	0.00176275	0.0927737	1.08871	3.52407	185.439	185.473	-88.9113	0.0000000E+000	0.0000000E+000	0.0000000E+000	88.9113	0.0000000E+000	0.0000000E+000	0.0000000E+000	-88.9113	0.0000000E+000	0.0000000E+000	0.0000000E+000	-1.08871	0.0000000E+000	0.0000000E+000	0.0000000E+000	1.08871	52.6207	88.9113	2.48117e-05
100226	10.7388	0.164162	10.7401	-0.8758	04/11/2024 10:48:05.6651	1.58051	0.227669	9.67309	0.00225994	1	38	0.00972894	0.000905854	0	0.00205815	0.0930983	0.00142317	0.0931092	0.8758	2.25994	147.836	147.853	-89.1242	0.0000000E+000	0.0000000E+000	0.0000000E+000	89.1242	0.0000000E+000	0.0000000E+000	0.0000000E+000	-89.1242	0.0000000E+000	0.0000000E+000	0.0000000E+000	-0.8758	0.0000000E+000	0.0000000E+000	0.0000000E+000	0.8758	65.416	89.1242	2.51993e-05
126178	10.7216	0.124097	10.7223	-0.663144	04/11/2024 10:48:06.0841	1.58052	0.227579	10.1642	0.00136152	1	38	0.00944234	0.000880627	0	0.00208408	0.0932574	0.00107941	0.0932636	0.663144	1.36152	117.63	117.638	-89.3369	0.0000000E+000	0.0000000E+000	0.0000000E+000	89.3369	0.0000000E+000	0.0000000E+000	0.0000000E+000	-89.3369	0.0000000E+000	0.0000000E+000	0.0000000E+000	-0.663144	0.0000000E+000	0.0000000E+000	0.0000000E+000	0.663144	86.3964	89.3369	2.5933e-05
158857	10.7076	0.0758701	10.7079	-0.405969	04/11/2024 10:48:06.5031	1.58051	0.226748	13.2051	0.000662943	1	38	0.00967438	0.000903481	0	0.00211128	0.0933867	0.000661703	0.0933891	0.405969	0.66294	93.5617	93.5641	-89.594	0.0000000E+000	0.0000000E+000	0.0000000E+000	89.594	0.0000000E+000	0.0000000E+000	0.0000000E+000	-89.594	0.0000000E+000	0.0000000E+000	0.0000000E+000	-0.405969	0.0000000E+000	0.0000000E+000	0.0000000E+000	0.405969	141.131	89.594	2.71945e-05
199998	10.7062	0.031714	10.7063	-0.169722	04/11/2024 10:48:06.9221	1.58052	0.226518	25.0924	0.000220176	1	38	0.00957648	0.000894475	0	0.00213682	0.0934029	0.000276679	0.0934033	0.169722	0.220179	74.3283	74.3287	-89.8303	0.0000000E+000	0.0000000E+000	0.0000000E+000	89.8303	0.0000000E+000	0.0000000E+000	0.0000000E+000	-89.8303	0.0000000E+000	0.0000000E+000	0.0000000E+000	-0.169722	0.0000000E+000	0.0000000E+000	0.0000000E+000	0.169722	337.586	89.8303	2.55359e-05