File: ASCII files/ex1.mpt
EC-Lab ASCII FILE
Nb header lines : 61

Potentio Electrochemical Impedance Spectroscopy

Run on channel : 1 (SN 12040)
User : kknu
CE vs. WE compliance from -10 V to 10 V
Electrode connection : standard
Ewe ctrl range : min = -1.50 V, max = 0.50 V
Safety Limits :
	Do not start on E overload
Acquisition started on : xx/xx/xxxx xx:xx:xx
Technique started on : xx/xx/xxxx xx:xx:xx
Saved on :
	File : xxx.mpr
	Directory : xx\
	Host : xxx.xxx.xxx.xx
Device : VSP (SN xxxx)
Address : xxx.xxx.xx.xxx
EC-Lab for windows v11.16 (software)
Internet server v11.16 (firmware)
Command interpretor v11.16 (firmware)
Electrode material :
Initial state :
Electrolyte :
Comments :
Electrode surface area : 0.001 cm²
Characteristic mass : 0.001 g
Equivalent Weight : 0.000 g/eq.
Density : 0.000 g/cm3
Cycle Definition : Charge/Discharge alternance
Mode                Single sine
E (V)               -1.0500
vs.                 Ref
tE (h:m:s)          0:01:0.0000
record              0
dI                  0.000
unit dI             mA
dt (s)              0.000
fi                  200.000
unit fi             kHz
ff                  10.000
unit ff             mHz
Nd                  8
Points              per decade
spacing             Logarithmic
Va (mV)             10.0
pw                  0.50
Na                  3
corr                0
E range min (V)     -1.500
E range max (V)     0.500
I Range             Auto
Bandwidth           5
nc cycles           0
goto Ns'            0
nr cycles           1
inc. cycle          1

freq/Hz	Re(Z)/Ohm	-Im(Z)/Ohm	|Z|/Ohm	Phase(Z)/deg	time/s	<Ewe>/V	<I>/mA	Cs/µF	Cp/µF	cycle number	I Range	|Ewe|/V	|I|/A	Re(Y)/Ohm-1	Im(Y)/Ohm-1	|Y|/Ohm-1	Phase(Y)/deg
200019	428.906	372.312	567.958	-40.9596	13125.2	-1.05006	-0.00318205	0.00213718	0.00091838	1	12	0.00926961	1.63209e-05	0.00132963	0.00115418	0.00176069	40.9596
149678	389.092	779.308	871.042	-63.468	13125.9	-1.05044	-0.00360068	0.00136444	0.00109218	1	12	0.0101659	1.1671e-05	0.000512832	0.00102714	0.00114805	63.468
112012	790.369	1276.19	1501.12	-58.2293	13126.6	-1.05033	-0.00359721	0.00111337	0.000804719	1	12	0.0101984	6.7939e-06	0.000350753	0.000566353	0.000666171	58.2293
83828.1	1450.48	1320.93	1961.82	-42.3236	13127.2	-1.05029	-0.00362186	0.00143731	0.000651613	1	12	0.0109024	5.55728e-06	0.000376871	0.000343209	0.00050973	42.3236
62734.4	1863.75	1040.75	2134.65	-29.1797	13127.7	-1.05027	-0.00359612	0.00243764	0.000579439	1	12	0.0104275	4.8849e-06	0.000409012	0.000228398	0.000468462	29.1797
46953.1	2052.78	763.463	2190.15	-20.4011	13128.3	-1.05028	-0.00358009	0.00443984	0.000539505	1	12	0.0101821	4.64904e-06	0.00042795	0.000159162	0.000456589	20.4011
35136.7	2135.79	563.038	2208.76	-14.7683	13128.8	-1.05028	-0.00358082	0.00804491	0.000522757	1	12	0.0102833	4.65569e-06	0.000437786	0.000115409	0.000452742	14.7683
26298.8	2166.13	423.537	2207.15	-11.0633	13129.4	-1.05027	-0.00358121	0.0142887	0.000526153	1	12	0.0100905	4.57174e-06	0.000444654	8.69418e-05	0.000453074	11.0633
19677.7	2184.39	309.38	2206.19	-8.06132	13129.8	-1.05032	-0.00357473	0.0261429	0.000514106	1	12	0.01065	4.82732e-06	0.000448792	6.35635e-05	0.000453271	8.06132
14726.6	2197.76	237.152	2210.52	-6.15873	13130.4	-1.05029	-0.00358859	0.0455714	0.000524513	1	12	0.0102327	4.6291e-06	0.000449772	4.8533e-05	0.000452382	6.15873
11025.4	2201.3	192.364	2209.69	-4.99418	13130.8	-1.05024	-0.00358682	0.0750417	0.000568703	1	12	0.0104644	4.7357e-06	0.000450833	3.93966e-05	0.000452551	4.99418
8325.19	2187.63	148.014	2192.63	-3.8707	13131.3	-1.05048	-0.00359075	0.129159	0.000588569	1	12	0.0105404	4.8072e-06	0.000455033	3.07873e-05	0.000456073	3.8707
6195.49	2213.13	103.182	2215.53	-2.66935	13131.9	-1.05022	-0.00358136	0.248967	0.000539997	1	12	0.0107069	4.83268e-06	0.000450869	2.10207e-05	0.000451359	2.66935
4621.48	2203.23	91.9229	2205.15	-2.3891	13132.7	-1.05023	-0.00359675	0.374641	0.000651009	1	12	0.0107083	4.85604e-06	0.00045309	1.89037e-05	0.000453484	2.3891
3456.11	2212.19	75.8307	2213.49	-1.96325	13133.5	-1.05024	-0.00359403	0.607279	0.000712727	1	12	0.0107564	4.85948e-06	0.00045151	1.54771e-05	0.000451775	1.96325
2585.83	2218.87	74.1989	2220.11	-1.91525	13134.2	-1.05028	-0.00359977	0.829513	0.000926551	1	12	0.0107491	4.84172e-06	0.000450176	1.50539e-05	0.000450428	1.91525
1935.62	2213.29	73.5498	2214.51	-1.9033	13135	-1.05025	-0.00361495	1.11794	0.00123318	1	12	0.0107404	4.85e-06	0.000451318	1.49978e-05	0.000451567	1.9033
1448.61	2221.14	79.6343	2222.56	-2.05334	13135.7	-1.05026	-0.00359565	1.37965	0.00177117	1	12	0.0107663	4.84409e-06	0.000449642	1.6121e-05	0.000449931	2.05334
1083.96	2204.91	91.7084	2206.82	-2.38172	13136.5	-1.05028	-0.00361512	1.60102	0.00276492	1	12	0.010701	4.84906e-06	0.00045275	1.88311e-05	0.000453141	2.38172
811.298	2234.23	109.419	2236.91	-2.80377	13137.2	-1.05027	-0.0035765	1.79286	0.00428982	1	12	0.0107608	4.81058e-06	0.000446511	2.18675e-05	0.000447046	2.80377
607.527	2226.26	142.053	2230.79	-3.65098	13138	-1.05024	-0.00357836	1.84418	0.00747807	1	12	0.0107565	4.82184e-06	0.000447362	2.85453e-05	0.000448272	3.65098
454.564	2240.3	173.572	2247.02	-4.43025	13138.7	-1.05028	-0.00358436	2.01719	0.0120363	1	12	0.0107598	4.78847e-06	0.000443705	3.43769e-05	0.000445034	4.43025
340.109	2258.64	198.13	2267.32	-5.01319	13139.5	-1.05021	-0.00357354	2.36185	0.0180355	1	12	0.010776	4.75277e-06	0.000439363	3.85412e-05	0.00044105	5.01319
254.43	2275.11	271.018	2291.2	-6.79324	13140.2	-1.05034	-0.00361745	2.30809	0.0322943	1	12	0.0107594	4.696e-06	0.000433389	5.16267e-05	0.000436453	6.79324
190.549	2292.72	333.356	2316.83	-8.2727	13141	-1.05019	-0.00358041	2.50556	0.0518722	1	12	0.010751	4.64041e-06	0.000427133	6.21042e-05	0.000431624	8.2727
142.492	2309.24	413.077	2345.89	-10.1418	13141.8	-1.05021	-0.00358322	2.70394	0.0838386	1	12	0.0107766	4.5938e-06	0.000419616	7.50611e-05	0.000426277	10.1418
106.673	2350.99	534.761	2411.05	-12.8145	13142.7	-1.05025	-0.00370052	2.79002	0.137251	1	13	0.0107788	4.47058e-06	0.000404427	9.19916e-05	0.000414758	12.8145
79.8212	2383.18	687.443	2480.35	-16.0905	13143.5	-1.05026	-0.00371465	2.90045	0.222799	1	13	0.0107698	4.34203e-06	0.000387375	0.000111741	0.000403169	16.0905
59.7895	2448.3	694.268	2544.84	-15.8318	13144.3	-1.05024	-0.00370997	3.83414	0.285366	1	13	0.0107197	4.21233e-06	0.000378047	0.000107203	0.000392953	15.8318
44.728	2534.95	1111.24	2767.82	-23.6712	13145	-1.05024	-0.00371306	3.20207	0.516148	1	13	0.0107927	3.89934e-06	0.000330898	0.000145055	0.000361295	23.6712
33.4276	2662.74	1444.26	3029.2	-28.4752	13145.8	-1.05027	-0.00371732	3.29663	0.749384	1	13	0.0107813	3.55912e-06	0.000290183	0.000157394	0.00033012	28.4752
25.0401	2834	1814.03	3364.86	-32.6231	13146.5	-1.05027	-0.00370615	3.50381	1.01835	1	13	0.0107797	3.20363e-06	0.000250304	0.000160218	0.00029719	32.6231
18.735	3089.15	2298.5	3850.45	-36.6513	13147.3	-1.05028	-0.00371354	3.69591	1.31701	1	13	0.0107359	2.78821e-06	0.000208361	0.000155032	0.00025971	36.6513
14.0176	3486.08	2834.27	4492.87	-39.1119	13148.2	-1.05024	-0.0037162	4.00594	1.59419	1	13	0.0107718	2.39754e-06	0.000172699	0.000140409	0.000222575	39.1119
10.5007	4031.88	3451.86	5307.67	-40.5682	13148.9	-1.05021	-0.00370816	4.39087	1.85715	1	13	0.0108066	2.03604e-06	0.00014312	0.000122531	0.000188407	40.5682
7.85965	4774.94	4021.49	6242.78	-40.1043	13149.8	-1.05024	-0.00371442	5.03536	2.08952	1	13	0.0107648	1.72437e-06	0.000122521	0.000103188	0.000160185	40.1043
5.88291	5786.39	4581.45	7380.51	-38.3709	13150.5	-1.05025	-0.00370593	5.90507	2.2754	1	13	0.0107561	1.45737e-06	0.000106227	8.41065e-05	0.000135492	38.3709
4.39893	6823.74	4949.62	8429.84	-35.9554	13151.6	-1.05022	-0.00373627	7.30972	2.52004	1	14	0.0107362	1.27359e-06	9.60249e-05	6.9652e-05	0.000118626	35.9554
3.29363	7970.9	5129.92	9478.99	-32.7646	13152.7	-1.05028	-0.0037292	9.41965	2.75887	1	14	0.0107816	1.13743e-06	8.87121e-05	5.70934e-05	0.000105496	32.7646
2.46607	9022.72	5235.51	10431.7	-30.1248	13154.2	-1.05024	-0.0037285	12.327	3.10503	1	14	0.0107444	1.02998e-06	8.29141e-05	4.81117e-05	9.58618e-05	30.1248
1.84257	10103.5	5219.76	11372.2	-27.3222	13156.1	-1.05024	-0.00372504	16.548	3.48626	1	14	0.0107463	9.44968e-07	7.8124e-05	4.03612e-05	8.7934e-05	27.3222
1.38128	11009.8	5223.64	12186.1	-25.3822	13158.7	-1.05025	-0.00372098	22.058	4.05306	1	14	0.0107496	8.82118e-07	7.41392e-05	3.51757e-05	8.20606e-05	25.3822
1.0334	11881	5289.49	13005.3	-23.9989	13162.1	-1.05025	-0.00371904	29.1164	4.81645	1	14	0.0107623	8.27531e-07	7.02449e-05	3.12734e-05	7.68919e-05	23.9989
0.773208	12656	5462.52	13784.5	-23.3458	13166.7	-1.05024	-0.00371596	37.6817	5.91746	1	14	0.0107488	7.79777e-07	6.6606e-05	2.87482e-05	7.25453e-05	23.3458
0.578532	13409	5760.69	14594.1	-23.249	13172.8	-1.05025	-0.00370988	47.7549	7.4407	1	14	0.0107379	7.3577e-07	6.29569e-05	2.70471e-05	6.85209e-05	23.249
0.433065	14263.3	6196.58	15551.1	-23.4822	13180.9	-1.05025	-0.00370865	59.3082	9.41659	1	14	0.0107406	6.9066e-07	5.89785e-05	2.56228e-05	6.43039e-05	23.4822
0.323901	15132.1	6891.33	16627.4	-24.485	13191.8	-1.05025	-0.0037032	71.3024	12.2478	1	14	0.0107529	6.46698e-07	5.4733e-05	2.4926e-05	6.01415e-05	24.485
0.242323	16160.7	7739.31	17918.3	-25.5896	13206.3	-1.05025	-0.00369969	84.8639	15.8319	1	14	0.0107473	5.99797e-07	5.03346e-05	2.41051e-05	5.58089e-05	25.5896
0.181534	17307.3	8819.93	19425.1	-27.0037	13225.6	-1.05025	-0.00369798	99.4024	20.4927	1	14	0.0107425	5.53019e-07	4.58673e-05	2.33743e-05	5.14797e-05	27.0037
0.135846	18730.3	10196.4	21325.8	-28.563	13251.4	-1.05025	-0.00369854	114.902	26.2669	1	14	0.0107462	5.03905e-07	4.11845e-05	2.242e-05	4.68916e-05	28.563
0.101725	20386.9	11816.2	23563.7	-30.0965	13285.9	-1.05026	-0.00369202	132.408	33.2952	1	14	0.0107485	4.56146e-07	3.67167e-05	2.12809e-05	4.24381e-05	30.0965
0.0761037	22559.7	13729.6	26409.1	-31.3244	13332	-1.05025	-0.00367765	152.319	41.1686	1	14	0.0107466	4.06927e-07	3.23463e-05	1.96857e-05	3.78657e-05	31.3244
0.0569665	24964.2	16181.4	29749.8	-32.9507	13393.5	-1.05026	-0.0036652	172.657	51.0798	1	14	0.0107461	3.61216e-07	2.82065e-05	1.82831e-05	3.36137e-05	32.9507
0.0426446	29454.7	19867.2	35528.7	-33.9997	13475.7	-1.05025	-0.00364784	187.853	58.7401	1	14	0.0107465	3.02474e-07	2.33344e-05	1.57391e-05	2.81463e-05	33.9997
0.0319138	33965.4	22469.4	40725	-33.4862	13585.5	-1.05025	-0.00361441	221.947	67.5634	1	14	0.010747	2.63891e-07	2.04793e-05	1.35478e-05	2.45549e-05	33.4862
0.0238768	41704.1	25419.3	48840.3	-31.3629	13732.3	-1.05024	-0.00359292	262.229	71.0314	1	14	0.0107479	2.20063e-07	1.74833e-05	1.06563e-05	2.04749e-05	31.3629
0.0178412	47833.2	25210.1	54070	-27.7911	13928.7	-1.05025	-0.00351481	353.853	76.9234	1	14	0.0107485	1.98789e-07	1.63612e-05	8.62306e-06	1.84945e-05	27.7911
0.0133776	71192.4	29289.3	76981.9	-22.3628	14190.6	-1.05025	-0.00347607	406.194	58.7997	1	14	0.010748	1.39617e-07	1.20131e-05	4.94233e-06	1.29901e-05	22.3628
0.0100058	61969.1	23548.1	66292.4	-20.8067	14540.7	-1.05025	-0.00337374	675.482	85.2313	1	14	0.0107493	1.62149e-07	1.41009e-05	5.35832e-06	1.50847e-05	20.8067
200019	418.349	383.735	567.687	-42.529	14602.4	-1.05014	-0.00299667	0.00207356	0.000947462	2	12	0.00957786	1.68717e-05	0.00129814	0.00119073	0.00176154	42.529
149678	392.769	795.513	887.191	-63.7231	14603.1	-1.05044	-0.00317069	0.00133664	0.00107467	2	12	0.0101627	1.1455e-05	0.000499002	0.00101068	0.00112715	63.7231
112012	811.144	1294.88	1527.96	-57.9359	14603.8	-1.05028	-0.00316949	0.00109731	0.000788064	2	12	0.0101511	6.64357e-06	0.000347436	0.000554632	0.000654468	57.9359
83828.1	1486.04	1327.09	1992.35	-41.7662	14604.4	-1.05037	-0.0031631	0.00143064	0.000634744	2	12	0.0108872	5.46447e-06	0.000374366	0.000334324	0.000501919	41.7662
62734.4	1884.15	1044.5	2154.3	-29.0023	14604.9	-1.05027	-0.00314762	0.00242888	0.000570967	2	12	0.0104477	4.84968e-06	0.00040598	0.000225059	0.000464189	29.0023
46953.1	2066.86	759.373	2201.95	-20.1735	14605.5	-1.05034	-0.00317754	0.00446376	0.000530882	2	12	0.0102869	4.67172e-06	0.000426283	0.000156618	0.000454144	20.1735
35136.7	2140.61	564.241	2213.73	-14.7666	14606	-1.05033	-0.0031406	0.00802777	0.000521526	2	12	0.0101742	4.59595e-06	0.000436807	0.000115137	0.000451727	14.7666
26298.8	2177.74	404.704	2215.02	-10.5276	14606.4	-1.05027	-0.00316748	0.0149536	0.000499189	2	12	0.0110591	4.99276e-06	0.000443863	8.24861e-05	0.000451462	10.5276
19677.7	2175.88	295.298	2195.83	-7.72864	14607	-1.0503	-0.00315507	0.0273895	0.000495347	2	12	0.0101727	4.63272e-06	0.000451272	6.12441e-05	0.000455409	7.72864
14726.6	2193.13	237.573	2205.96	-6.18252	14607.4	-1.05024	-0.00312394	0.0454906	0.00052762	2	12	0.0105746	4.79365e-06	0.000450681	4.88205e-05	0.000453318	6.18252
11025.4	2191.57	185.411	2199.4	-4.83582	14607.9	-1.05023	-0.00312175	0.0778556	0.000553292	2	12	0.0107834	4.90288e-06	0.000453051	3.8329e-05	0.000454669	4.83582
8325.19	2200.68	132.301	2204.65	-3.44038	14608.4	-1.05031	-0.00314915	0.144499	0.000520366	2	12	0.0109215	4.95385e-06	0.00045277	2.72197e-05	0.000453587	3.44038
6195.49	2202.58	114.301	2205.55	-2.97064	14609.2	-1.0503	-0.00316251	0.224748	0.000603615	2	12	0.010127	4.59162e-06	0.000452793	2.34972e-05	0.000453402	2.97064
4621.48	2206.52	98.9367	2208.74	-2.56732	14609.9	-1.05022	-0.00317309	0.348082	0.000698405	2	12	0.0102021	4.61896e-06	0.000452292	2.028e-05	0.000452747	2.56732
3456.11	2199.65	89.1471	2201.46	-2.3208	14610.7	-1.05022	-0.00315418	0.516566	0.00084707	2	12	0.0101801	4.62424e-06	0.000453872	1.83944e-05	0.000454244	2.3208
2585.83	2208.01	64.4483	2208.95	-1.67189	14611.4	-1.05029	-0.00318892	0.955013	0.00081294	2	12	0.0102377	4.63463e-06	0.00045251	1.3208e-05	0.000452703	1.67189
1935.62	2215.55	65.7451	2216.52	-1.69972	14612.2	-1.05027	-0.00316474	1.25065	0.00110032	2	12	0.0102441	4.62169e-06	0.000450959	1.33819e-05	0.000451157	1.69972
1448.61	2225.57	77.4761	2226.91	-1.99377	14613	-1.05021	-0.00315178	1.41808	0.00171645	2	12	0.0102786	4.61564e-06	0.00044878	1.56229e-05	0.000449052	1.99377
1083.96	2215.6	86.7827	2217.3	-2.24307	14613.7	-1.05024	-0.00316243	1.6919	0.00259174	2	12	0.0102128	4.60598e-06	0.000450653	1.76516e-05	0.000450999	2.24307
811.298	2222.9	114.229	2225.84	-2.94169	14614.5	-1.05019	-0.00313186	1.71737	0.00452303	2	12	0.0102394	4.60023e-06	0.000448677	2.30563e-05	0.000449269	2.94169
607.527	2234.58	132.741	2238.52	-3.39955	14615.2	-1.0503	-0.00318002	1.97356	0.00693966	2	12	0.0102552	4.58127e-06	0.000445938	2.64901e-05	0.000446725	3.39955
454.564	2239.3	173.317	2246	-4.42576	14616	-1.05024	-0.00317726	2.02015	0.0120296	2	12	0.0102168	4.5489e-06	0.000443909	3.43577e-05	0.000445237	4.42576
340.109	2248.63	211.849	2258.59	-5.38208	14616.7	-1.05021	-0.00315327	2.2089	0.0194336	2	12	0.010261	4.54311e-06	0.000440802	4.1529e-05	0.000442754	5.38208
254.43	2257.45	267.286	2273.22	-6.75249	14617.5	-1.05024	-0.00316385	2.34032	0.0323554	2	12	0.0102466	4.50755e-06	0.000436854	5.17243e-05	0.000439905	6.75249
190.549	2274.94	338.345	2299.97	-8.4594	14618.2	-1.05021	-0.0031605	2.46862	0.0534233	2	12	0.0102363	4.45063e-06	0.000430058	6.39612e-05	0.000434789	8.4594
142.492	2304.57	425.111	2343.45	-10.4515	14619	-1.05024	-0.00316353	2.6274	0.0864609	2	12	0.0102514	4.37448e-06	0.000419641	7.74088e-05	0.000426721	10.4515
106.673	2346.29	540.38	2407.72	-12.9698	14620	-1.0503	-0.00329586	2.76101	0.139077	2	13	0.010295	4.27582e-06	0.000404736	9.32156e-05	0.000415331	12.9698
79.8212	2381.76	712.031	2485.91	-16.6441	14620.7	-1.0503	-0.00330317	2.80029	0.229736	2	13	0.0102817	4.136e-06	0.000385413	0.00011522	0.000402267	16.6441
59.7895	2356.78	735.476	2468.88	-17.3315	14621.5	-1.05022	-0.00328309	3.61931	0.321192	2	13	0.0102733	4.16113e-06	0.000386653	0.000120662	0.000405043	17.3315
44.728	2502.98	1134.41	2748.05	-24.3812	14622.2	-1.05023	-0.00329176	3.13667	0.534516	2	13	0.0102778	3.74001e-06	0.000331441	0.000150217	0.000363894	24.3812
33.4276	2622.11	1464.08	3003.17	-29.1772	14623	-1.05026	-0.00328277	3.252	0.772897	2	13	0.0102587	3.41595e-06	0.000290732	0.000162333	0.000332982	29.1772
25.0401	2762.91	1864.8	3333.33	-34.017	14623.8	-1.05033	-0.00326894	3.40842	1.06674	2	13	0.0102376	3.07129e-06	0.000248661	0.000167832	0.0003	34.017
18.735	2985.14	2398.65	3829.43	-38.7829	14624.6	-1.05023	-0.00328699	3.5416	1.38952	2	13	0.0102601	2.67927e-06	0.000203561	0.000163568	0.000261135	38.7829
14.0176	3354.69	3029.38	4520.08	-42.083	14625.4	-1.05028	-0.00329626	3.74792	1.68348	2	13	0.0102649	2.27096e-06	0.000164195	0.000148273	0.000221235	42.083
10.5007	3844.99	3716.31	5347.42	-44.0251	14626.1	-1.05039	-0.00330976	4.07841	1.96982	2	13	0.0102204	1.91127e-06	0.000134464	0.000129964	0.000187006	44.0251
7.85965	4600.39	4527.91	6454.89	-44.5451	14627.1	-1.0502	-0.00328707	4.47217	2.20058	2	13	0.0102258	1.5842e-06	0.000110412	0.000108673	0.000154921	44.5451
5.88291	5533.39	5325.66	7679.91	-43.9041	14627.7	-1.05025	-0.00327516	5.0799	2.44281	2	13	0.0102426	1.33369e-06	9.38165e-05	9.02944e-05	0.00013021	43.9041
4.39893	6823.81	6151.8	9187.44	-42.0353	14628.8	-1.05027	-0.00330116	5.88127	2.63686	2	14	0.0102655	1.11734e-06	8.08422e-05	7.28808e-05	0.000108844	42.0353
3.29363	8337.45	6637.02	10656.6	-38.5215	14629.9	-1.05024	-0.00330343	7.28068	2.8241	2	14	0.0102684	9.6357e-07	7.34169e-05	5.84434e-05	9.38386e-05	38.5215
2.46607	9761.21	6824.42	11910.2	-34.9588	14631.4	-1.05025	-0.00329703	9.45692	3.10484	2	14	0.010236	8.59424e-07	6.88117e-05	4.81088e-05	8.39613e-05	34.9588
1.84257	11204.8	7013.41	13218.8	-32.0436	14633.4	-1.05024	-0.0033006	12.3159	3.46692	2	14	0.0102313	7.74003e-07	6.41244e-05	4.01373e-05	7.56501e-05	32.0436
1.38128	12523.1	7023.84	14358.3	-29.2868	14635.9	-1.05023	-0.00330532	16.4046	3.9256	2	14	0.0102451	7.1353e-07	6.07439e-05	3.40695e-05	6.96459e-05	29.2868
1.0334	13807	7131.11	15539.8	-27.3157	14639.4	-1.05025	-0.00329598	21.5971	4.54798	2	14	0.0102419	6.59079e-07	5.71752e-05	2.95302e-05	6.43509e-05	27.3157
0.773208	14942.7	7256.66	16611.6	-25.9027	14643.9	-1.05026	-0.00329594	28.3653	5.41301	2	14	0.0102423	6.16577e-07	5.41512e-05	2.62975e-05	6.0199e-05	25.9027
0.578532	16039.1	7572.5	17736.8	-25.2733	14650	-1.05024	-0.00329316	36.329	6.62188	2	14	0.0102388	5.77264e-07	5.09833e-05	2.40707e-05	5.63799e-05	25.2733
0.433065	17151	8093.65	18964.8	-25.2629	14658.2	-1.05026	-0.00329316	45.4069	8.27018	2	14	0.0102489	5.40419e-07	4.76862e-05	2.25034e-05	5.27293e-05	25.2629
0.323901	18298.3	8803.71	20306	-25.6932	14669	-1.05025	-0.00329407	55.8138	10.4912	2	14	0.0102355	5.04065e-07	4.43775e-05	2.1351e-05	4.92466e-05	25.6932
0.242323	19592.7	9779.96	21898	-26.5267	14683.5	-1.05025	-0.00329013	67.1565	13.3953	2	14	0.0102375	4.67508e-07	4.08588e-05	2.03952e-05	4.56662e-05	26.5267
0.181534	20988.6	10980	23687.1	-27.6158	14702.8	-1.05025	-0.00328604	79.8475	17.1568	2	14	0.0102384	4.32233e-07	3.74075e-05	1.95693e-05	4.2217e-05	27.6158
0.135846	22721.1	12483.8	25924.8	-28.7861	14728.7	-1.05024	-0.00327829	93.8482	21.7616	2	14	0.0102375	3.94894e-07	3.38064e-05	1.85745e-05	3.85732e-05	28.7861
0.101725	24593.3	14332	28464.6	-30.2318	14763.1	-1.05024	-0.003271	109.166	27.6749	2	14	0.0102321	3.59466e-07	3.03533e-05	1.76886e-05	3.51313e-05	30.2318
0.0761037	27066.9	16518.5	31709.3	-31.395	14809.2	-1.05024	-0.00326012	126.603	34.3568	2	14	0.0102362	3.22814e-07	2.69195e-05	1.64285e-05	3.15365e-05	31.395
0.0569665	29580.1	19291.7	35315	-33.1118	14870.8	-1.05025	-0.0032445	144.821	43.2168	2	14	0.0102317	2.89727e-07	2.37181e-05	1.54686e-05	2.83166e-05	33.1118
0.0426446	33826.7	22541.8	40649.5	-33.6792	14952.9	-1.05027	-0.0032181	165.564	50.9138	2	14	0.0102309	2.51687e-07	2.04715e-05	1.36421e-05	2.46006e-05	33.6792
0.0319138	37919.2	26275.4	46133.1	-34.7193	15062.7	-1.05024	-0.00319396	189.798	61.5695	2	14	0.0102356	2.21871e-07	1.7817e-05	1.23459e-05	2.16764e-05	34.7193
0.0238768	46010.1	29608.4	54713.6	-32.7621	15209.5	-1.05024	-0.00315723	225.128	65.9275	2	14	0.0102343	1.87053e-07	1.53696e-05	9.89062e-06	1.8277e-05	32.7621
0.0178412	51408.2	32122.9	60619.2	-31.9996	15405.9	-1.05025	-0.00311183	277.704	77.9816	2	14	0.0102354	1.68847e-07	1.39898e-05	8.74167e-06	1.64964e-05	31.9996
0.0133776	64626.5	32968	72549.7	-27.0275	15667.8	-1.05024	-0.00304722	360.87	74.5184	2	14	0.0102329	1.41047e-07	1.22783e-05	6.26355e-06	1.37836e-05	27.0275
0.0100058	66802.3	33712.1	74826.8	-26.778	16018	-1.05024	-0.00296725	471.829	95.7725	2	14	0.010235	1.36782e-07	1.1931e-05	6.02103e-06	1.33642e-05	26.778